Timestamps,Acc_X,Acc_Y,Acc_Z
1.717692294398771e+18,0.10399802071892857,6.30280753,7.4484537180476185
1.717692294598771e+18,0.0017289047239499998,6.26400892635,7.54861507425
1.717692294798771e+18,0.15819104003349999,6.2357027894,7.466256339949998
1.717692294998771e+18,0.07737409972900001,6.245140663200001,7.580588584900002
1.717692295198771e+18,-0.011870315569849991,6.227933944800001,7.578335769700002
1.717692295398771e+18,-0.0022004241925499975,6.16678610245,7.436011734
1.717692295598771e+18,0.05376818848454999,6.29773379515,7.28451177975
1.717692295798771e+18,-0.21960048130999996,5.978824114047619,6.172663879285714
1.717692295998771e+18,0.29009674073900005,5.2278411484000005,8.178654899400001
1.717692296198771e+18,-0.22370979308459998,3.638214294350001,10.0524882435
1.717692296398771e+18,-0.70306546785,2.88412742615,10.924372650999999
1.717692296598771e+18,-0.46239594268149997,3.17297426595,10.26940965285
1.717692296798771e+18,-0.1252819747927,4.45118870545,8.666146156249999
1.717692296998771e+18,0.07901319122099999,5.7642057723999995,6.899055839600001
1.717692297198771e+18,0.3746708679142857,6.743270154714286,5.817210191952381
1.717692297398771e+18,0.413747108452,6.288408187850001,5.685813789400001
1.717692297598771e+18,0.07625143432380002,5.106832786450001,8.34293078615
1.717692297798771e+18,0.459394683852,3.8589527665000007,9.539871734
1.717692297998771e+18,0.43289978027549997,3.4262326126500007,10.1948422167
1.717692298198771e+18,0.93287507637,3.3712669143999996,10.849176521499999
1.717692298398771e+18,0.09822573851949999,3.7536242980000005,9.287870773300002
1.717692298598771e+18,0.49443681335,5.35011437985,7.741047409000001
1.717692298798771e+18,0.5879915509809523,5.91316066195238,6.3258382087619065
1.717692298998771e+18,0.4044364700270001,6.5284265671499995,6.1432176132
1.717692299198771e+18,0.4282818832125,6.436981727649998,6.708576942399999
1.717692299398771e+18,-0.07610174558849994,4.4083852158,8.8779407272
1.717692299598771e+18,0.048424301140050016,3.8389094467500002,9.6543611527
1.717692299798771e+18,0.40394998169750007,3.6654426728,10.581054084749999
1.717692299998771e+18,1.2996573486949998,4.1705822297,9.466516776849996
1.717692300198771e+18,1.3646265301809524,5.270183454333333,8.274015524714287
1.717692300398771e+18,0.4213962021105,6.277892555350001,6.442999214149999
1.717692300598771e+18,0.060249710080800004,6.62509554295,5.80465914915
1.717692300798771e+18,0.1786609725915,6.33476678475,5.47880177305
1.717692300998771e+18,0.439882759108,5.224914734,8.180017066900001
1.717692301198771e+18,0.4981940003069999,3.9162835464000003,9.7117143865
1.717692301398771e+18,0.30624815368235,3.5763479462,10.9283618545
1.717692301598771e+18,0.5126339721766665,3.732930188857143,10.225051182333335
1.717692301798771e+18,0.0408275985667,4.79328730765,8.793269302299999
1.717692301998771e+18,-0.15907420348950002,5.832867988549999,6.9134633788499995
1.717692302198771e+18,0.6415359191465001,6.8137856598,5.391129089399999
1.717692302398771e+18,0.51875374603,6.458162681600001,5.116023674
1.717692302598771e+18,0.444837455735,5.1159114076000005,7.9785360489
1.717692302798771e+18,1.242057128905,3.9352042007000008,9.820291099
1.717692302998771e+18,0.461220886235,3.2886537093999997,10.4395907598
1.717692303198771e+18,0.5156277465809526,3.4590140860476195,10.735603769238097
1.717692303398771e+18,0.6192023620495001,3.9686222076999997,9.260298111
1.717692303598771e+18,0.30772258759,5.202790740999999,7.9970450592
1.717692303798771e+18,0.329150527927,6.431323493950001,6.04174362945
1.717692303998771e+18,0.23224953460550002,6.768542244,5.54719454955
1.717692304198771e+18,0.48945966334971003,6.2755648955000005,5.691733978250001
1.717692304398771e+18,0.557470733615,5.136089447049999,7.909297531150001
1.717692304598771e+18,0.2985434613914286,3.6045614188571427,9.675536760380954
1.717692304798771e+18,1.011244606025,2.91226890565,9.557475128499998
1.717692304998771e+18,0.5771697693055,2.39489229595,10.636588600000001
1.717692305198771e+18,-0.04516857147535,1.120412590035,9.9657361451
1.717692305398771e+18,0.23195764160400004,1.0950702896749998,9.803121803349999
1.717692305598771e+18,-0.07212751007,1.04729713435,9.73416020965
1.717692305798771e+18,-0.051410591114500005,0.9465865630950001,9.838074119549999
1.717692305998771e+18,-0.1841320953385,0.8876765670749999,9.750476280349998
1.717692306198771e+18,-0.25467753819047617,0.9008766174476192,9.778736441380953
1.717692306398771e+18,-0.171865104669,1.0601030045500004,9.70250104525
1.717692306598771e+18,-0.13227243804750002,1.0993738404,9.659203582800002
1.717692306798771e+18,-0.207012016305,1.13413904565,9.7212570419
1.717692306998771e+18,-0.22448069001000004,1.1119476929,9.71953562165
1.717692307198771e+18,-0.24411985015499998,1.13318852235,9.7186823958
1.717692307398771e+18,-0.133492401123,1.1084823990500001,9.7271173554
1.717692307598771e+18,-0.19182253157142856,1.1184955051428571,9.726067395952379
1.717692307798771e+18,-0.18020276642500002,1.0992765426499997,9.72633148945
1.717692307998771e+18,-0.152817214967,1.0834394760000001,9.74728791045
1.717692308198771e+18,-0.1912872161795,1.05040317542,9.74463093565
1.717692308398771e+18,-0.1460438003645,1.024237587045,9.7587390976
1.717692308598771e+18,-0.22517674255500003,1.0631192322799996,9.736427993700001
1.717692308798771e+18,-0.148004722605,1.0686053237699997,9.72898097995
1.717692308998771e+18,-0.15465696062380951,1.0958853803333333,9.690519888714286
1.717692309198771e+18,-0.19959494019000001,1.0997256088000005,9.7014008331
1.717692309398771e+18,-0.17001644897499998,1.1075318754999999,9.73426499175
1.717692309598771e+18,-0.169717071545,1.1192899246499999,9.72583003245
1.717692309798771e+18,-0.16866925049499998,1.11496392075,9.728636695850001
1.717692309998771e+18,-0.16819773101999996,1.14411579885,9.7215339661
1.717692310198771e+18,-0.16725469207500002,1.1320508881,9.717746841399999
1.717692310398771e+18,-0.1383348312355,1.11667785645,9.7650185395
1.717692310598771e+18,-0.15106443132857145,1.1235920496666667,9.733623112380954
1.717692310798771e+18,-0.14780264282500002,1.1744352493,9.726301551850002
1.717692310998771e+18,-0.133716934212,1.254451355,9.730133583
1.717692311198771e+18,-0.1776954803485,1.2291988678499999,9.625635886900001
1.717692311398771e+18,-0.17351916503500003,1.2420571289,9.718959320149999
1.717692311598771e+18,-0.14588662719499998,1.29057124325,9.705876525799999
1.717692311798771e+18,-0.16093782806499995,1.29135710905,9.700674842800002
1.717692311998771e+18,-0.17465109688095243,1.292505079047619,9.70230252947619
1.717692312198771e+18,-0.159994789115,1.3107118606500001,9.711377586450002
1.717692312398771e+18,-0.17057778165999998,1.3439876632499999,9.734399711650001
1.717692312598771e+18,-0.16476237486499998,1.3776601411000002,9.70500833125
1.717692312798771e+18,-0.15902929687,1.4368545455000001,9.6767620697
1.717692312998771e+18,-0.16498690795999998,1.42684785465,9.685825721850001
1.717692313198771e+18,-0.16849710846500005,1.4287414169,9.65405429075
1.717692313398771e+18,-0.18057449341428572,1.4341391209047618,9.65276981895238
1.717692313598771e+18,-0.14851366424499998,1.42381665805,9.687943817149998
1.717692313798771e+18,-0.17801731109000002,1.4196553116000001,9.698197494599999
1.717692313998771e+18,-0.228986320495,1.40616087345,9.68974008175
1.717692314198771e+18,-0.0634231109635,1.23705004124,9.8186744609
1.717692314398771e+18,-0.009033714293500006,0.8445063400899999,10.7437283016
1.717692314598771e+18,-0.27796446991634993,3.6493511352,10.249688163300002
1.717692314798771e+18,0.21171972656589996,5.95353206635,7.83074089045
1.717692314998771e+18,0.1758129664808571,6.238084978333332,6.741423993857143
1.717692315198771e+18,0.22061872100150004,7.0106338119,5.7079228135
1.717692315398771e+18,0.3981420593349999,6.932114593500001,5.41628427885
1.717692315598771e+18,0.2501073989845,6.543073608449999,5.2746113891999995
1.717692315798771e+18,-0.14306499482149998,5.121928893999999,8.307057884199999
1.717692315998771e+18,-0.06694079589900001,3.9125413284500006,9.6431569524
1.717692316198771e+18,-0.30959369658799996,3.89865021515,11.204387855000002
1.717692316398771e+18,0.2369216046985714,4.385380554095238,9.858399352666666
1.717692316598771e+18,0.49923433686,5.14365621185,8.0703027192
1.717692316798771e+18,0.39745349121699997,6.30374379715,6.03601803595
1.717692316998771e+18,0.29243188475755005,6.70485717765,5.656766693149999
1.717692317198771e+18,0.4241953811655,6.3458512344,5.40718320465
1.717692317398771e+18,0.16103512574350004,5.41751172635,8.71022200015
1.717692317598771e+18,0.613618972746,4.2733061141999995,9.3253079222
1.717692317798771e+18,0.216045730587,4.06195312505,10.395559821400001
1.717692317998771e+18,0.5285936410033333,4.238136749285713,10.083089251047618
1.717692318198771e+18,0.6905739441249998,4.96403723145,8.54699393455
1.717692318398771e+18,0.4994139633215,6.04752909855,6.994295288149999
1.717692318598771e+18,0.3678525467150001,6.6188610077500005,5.8244330292
1.717692318798771e+18,0.32118708801600004,6.568011749300001,5.47461797345
1.717692318998771e+18,0.4984634399375,5.9222920303999995,7.060240654
1.717692319198771e+18,0.5405858459286,4.724235900849999,8.84649861135
1.717692319398771e+18,0.39564867292285716,4.036213793095238,9.731114043857144
1.717692319598771e+18,0.333723518367,4.009000739999999,10.724306190500002
1.717692319798771e+18,0.5933960266,4.0657552184000005,9.8593673399
1.717692319998771e+18,0.58998312378,4.8964976806500005,8.55071369945
1.717692320198771e+18,0.4008589095795,5.793088211150001,7.152418968149999
1.717692320398771e+18,0.46311444861,6.703420165999999,5.7271129074000005
1.717692320598771e+18,0.40030506134349997,6.496812309249999,5.610093749950001
1.717692320798771e+18,0.47735020228857145,5.963327767619047,6.496675807380951
1.717692320998771e+18,0.6217994613893001,4.908540138250001,9.348569549599999
1.717692321198771e+18,0.4472698975165,3.8705237047000005,9.588640319700001
1.717692321398771e+18,0.17453704833390002,4.1743019944499995,10.67309019505
1.717692321598771e+18,0.39248382568350004,4.383117759549999,9.391911918499998
1.717692321798771e+18,-0.5091586990320001,4.83190699765,8.793381568849998
1.717692321998771e+18,-0.11166030120949999,5.90979302215,7.2864203110000005
1.717692322198771e+18,0.41487725829309996,6.816285461350001,5.4433105774
1.717692322398771e+18,0.19875098092809523,6.458790305,5.737390463666667
1.717692322598771e+18,0.29209508516,5.85655622855,6.7945057526
1.717692322798771e+18,0.5089641036895,5.058520752,8.69699700165
1.717692322998771e+18,0.6156547393385001,3.68828517145,9.041310997000002
1.717692323198771e+18,0.5542673950254999,2.8158618851,9.56459282685
1.717692323398771e+18,0.841018592845,2.7054215469000007,10.6035073935
1.717692323598771e+18,0.26120681762135,1.3341082076700002,9.924077773899999
1.717692323798771e+18,-0.39567005702857144,1.1922207641523808,9.744186859190474
1.717692323998771e+18,-0.158408088684,1.3075160065,9.693781677299999
1.717692324198771e+18,-0.41138202667999996,1.1981384581999999,9.729025886550001
1.717692324398771e+18,-0.37366795348250004,1.309035347,9.7144387207
1.717692324598771e+18,-0.30153295897399995,1.5161596299,9.6842764435
1.717692324798771e+18,-0.3153716811955,1.5093637619,9.676896789599999
1.717692324998771e+18,-0.3627706146200001,1.513622406,9.705831619300003
1.717692325198771e+18,-0.2982369559142857,1.6008994838571429,9.663233773428571
1.717692325398771e+18,-0.31106064605,1.5901881866,9.675369964599998
1.717692325598771e+18,-0.28990962982,1.73805070485,9.633397247300001
1.717692325798771e+18,-0.27290499116,1.75437425995,9.60507614135
1.717692325998771e+18,-0.307782463065,1.7294959945499997,9.585601638700002
1.717692326198771e+18,-0.290575744645,1.7403110046,9.623772262550002
1.717692326398771e+18,-0.2856734390150001,1.75425450905,9.629684966949998
1.717692326598771e+18,-0.307011566175,1.7760641554999999,9.628532363949999
1.717692326798771e+18,-0.27733755930952375,1.7383066014285715,9.63896994452381
1.717692326998771e+18,-0.30465396881499995,1.7135391769000001,9.658305450499999
1.717692327198771e+18,-0.26557024383499994,1.6631464690999997,9.65839526375
1.717692327398771e+18,-0.282941619875,1.6581842881500002,9.659076347349998
1.717692327598771e+18,-0.27827881621999995,1.6808097383500002,9.646756965649999
1.717692327798771e+18,-0.31439870453,1.680413063,9.641016403250001
1.717692327998771e+18,-0.30198950958000004,1.6642766189,9.64433200835
1.717692328198771e+18,-0.3466862051952381,1.6679742868095235,9.58684262957143
1.717692328398771e+18,-0.32921040343999997,1.65776515965,9.651764053299999
1.717692328598771e+18,-0.33951647185,1.668946907,9.6472733917
1.717692328798771e+18,-0.3198548584,1.65920965565,9.646105819750002
1.717692328998771e+18,-0.29481193542,1.6809519424000001,9.666149139450003
1.717692329198771e+18,-0.34754727173000005,1.7163308716999999,9.620232124249998
1.717692329398771e+18,-0.297169532765,1.7075216904500004,9.665258491500001
1.717692329598771e+18,-0.32310310365000006,1.7188980333,9.632813461400001
1.717692329798771e+18,-0.2931190272714286,1.723473161952381,9.631129106904762
1.717692329998771e+18,-0.3114573211700001,1.7119674455000002,9.641083763149998
1.717692330198771e+18,-0.305986198425,1.6958609388999997,9.64816403965
1.717692330398771e+18,-0.3055221633950001,1.6534616088999996,9.6022320557
1.717692330598771e+18,-0.322212455755,1.6497044221500001,9.638756103500002
1.717692330798771e+18,-0.30270801543000003,1.6581094436000001,9.633157745299998
1.717692330998771e+18,-0.31472053527500005,1.6191379851499998,9.659862213050001
1.717692331198771e+18,-0.3120653424857143,1.6063595580952383,9.667068655809524
1.717692331398771e+18,-0.29929511260999997,1.5900759200999999,9.6524675904
1.717692331598771e+18,-0.330939308155,1.5700400847999998,9.691102249150001
1.717692331798771e+18,-0.304070182805,1.3841042403499997,9.700884407099998
1.717692331998771e+18,-0.202356697085,1.2841945038000002,9.6922174301
1.717692332198771e+18,-0.20514839172999996,1.28803401955,9.6938190993
1.717692332398771e+18,-0.22638173675,1.2508812789500001,9.67875292965
1.717692332598771e+18,-0.0620281546502381,0.8852804783428571,10.240461992095238
1.717692332798771e+18,0.0002095642239999973,2.291412483245,10.786883559500001
1.717692332998771e+18,0.4787419510045,5.337488136349999,8.735122718700001
1.717692333198771e+18,0.41136705780750005,5.48431031805,8.09685749815
1.717692333398771e+18,0.47903384397300003,5.9208325654000005,7.30502661895
1.717692333598771e+18,0.5116510162399999,6.2999716415,5.907884491
1.717692333798771e+18,0.443430381772,6.829585304150001,5.42129136655
1.717692333998771e+18,0.4293820953385,6.332558875850001,5.364806327799999
1.717692334198771e+18,0.45367800033852373,4.837297930190475,8.916657715333333
1.717692334398771e+18,0.54762121581,3.84668577575,9.776379914
1.717692334598771e+18,0.4577106857245,3.4607283783,10.406861320249998
1.717692334798771e+18,0.31406190495599995,3.6027455520500005,10.310656378350002
1.717692334998771e+18,0.538370452853,4.6511952896,9.4005339889
1.717692335198771e+18,0.8650960236099999,5.09089842225,7.8981008148499985
1.717692335398771e+18,0.8596323852575001,6.4548620452500005,6.022905304
1.717692335598771e+18,0.5190705871666668,6.7552951485238095,5.185502406523808
1.717692335798771e+18,0.5541251907234999,6.581551094050001,5.1587747726
1.717692335998771e+18,0.21567150879850003,4.999520942600001,8.5762505951
1.717692336198771e+18,0.7606132965769999,3.7653748625500008,10.031958435449999
1.717692336398771e+18,0.529995368965,3.3950225144,10.6192471625
1.717692336598771e+18,0.7270755386395,3.47506855785,10.263519401500002
1.717692336798771e+18,0.7539296950750001,4.1791668777,9.3070608674
1.717692336998771e+18,0.9261465683099999,4.9540679627,8.432474578850002
1.717692337198771e+18,0.9056452723047619,6.153026144809523,6.720267987952381
1.717692337398771e+18,1.10626700579,6.683945663449999,5.33979334265
1.717692337598771e+18,1.0561138000149997,6.46950908665,5.4376747971
1.717692337798771e+18,0.7928712158000001,5.29442269135,7.577243041999999
1.717692337998771e+18,0.6094651107835001,3.5639387512500003,9.538816428450001
1.717692338198771e+18,0.4467609558067999,2.9167071762,10.688276114
1.717692338398771e+18,0.2202370147697,2.3640414504500002,10.9042844235
1.717692338598771e+18,0.6017985534714286,3.0369204057619053,10.170749817238093
1.717692338798771e+18,1.34725836182,3.7842057037500005,9.111290474
1.717692338998771e+18,1.24536524944,4.97060856635,7.3098690490500005
1.717692339198771e+18,1.12524005129,6.393347465550001,6.000100227450001
1.717692339398771e+18,1.16735497289,6.053322052,6.095908493149999
1.717692339598771e+18,0.8705372086499998,5.58354645535,6.960256073049999
1.717692339798771e+18,0.7715854797330001,4.131244033750001,8.9549031831
1.717692339998771e+18,0.4155644008296666,3.5888726153333335,10.390749468095239
1.717692340198771e+18,0.6676566009449999,3.3342563782,11.068275900500002
1.717692340398771e+18,1.465452575655,3.61501254275,9.7160703277
1.717692340598771e+18,1.1057655486199998,4.453493911850001,8.81991389465
1.717692340798771e+18,0.644439880375,5.3211945190500005,7.0785924912
1.717692340998771e+18,0.826947853116,6.836957473749999,5.482491599999999
1.717692341198771e+18,0.9289008407699999,6.220636619549999,6.394941650300001
1.717692341398771e+18,0.7681725768950001,6.060102951,8.3749866258
1.717692341598771e+18,0.8412719944604762,6.244215087904763,8.053659471714287
1.717692341798771e+18,0.8117694167910001,6.395847267150001,7.317765129100001
1.717692341998771e+18,0.9577084350449999,6.3199550858,7.350883758549999
1.717692342198771e+18,0.919492904675,6.3707818909,7.22200176995
1.717692342398771e+18,0.7964338073749999,6.4212120210000005,7.432815879800001
1.717692342598771e+18,0.8581280136,6.392404426600001,7.368487152199998
1.717692342798771e+18,0.9746906203399999,6.3813873367500005,7.3491997604999995
1.717692342998771e+18,0.8583008684666668,6.38388179247619,7.37256866457143
1.717692343198771e+18,0.8503367156999999,6.37460643765,7.396074783299999
1.717692343398771e+18,0.941220222465,6.3923819734,7.373846008300001
1.717692343598771e+18,0.854460639945,6.3492267151,7.373584052949999
1.717692343798771e+18,0.88277426148,6.407859786850001,7.3799607925999995
1.717692343998771e+18,0.926430976855,6.365475425649999,7.395625717250001
1.717692344198771e+18,0.862281875595,6.3739478072499995,7.38871758275
1.717692344398771e+18,0.7813109697380953,6.345753936809524,7.460585632333332
1.717692344598771e+18,0.7867639160117648,6.311334336117646,7.438587260529412
1.717692344798771e+18,,,
