Timestamps,Acc_X,Acc_Y,Acc_Z
1.7177164497443274e+18,1.344611009952381,3.326632232714286,9.197331194190475
1.7177164499443274e+18,1.214708999615,3.1616128921500004,8.953226669300001
1.7177164501443274e+18,0.740989105207,3.4257087021000006,9.35289555365
1.7177164503443274e+18,0.9017547912300001,3.03383111565,9.17479591375
1.7177164505443274e+18,0.9358164596800002,3.3345707244,8.6958518829
1.7177164507443274e+18,0.9685458983966001,3.7125796508999995,6.467989746100001
1.7177164509443274e+18,0.318320549052,1.419138885506,8.2641421281
1.7177164511443274e+18,-0.4066044616619047,-0.8508021763038096,11.284733276380953
1.7177164513443274e+18,-1.8516494751449997,-1.7165778579000002,13.102081581500002
1.7177164515443274e+18,-1.6188984832494995,-0.864250282315,11.256082855949998
1.7177164517443274e+18,0.91269703679,-0.7763306121639499,10.2186127855
1.7177164519443274e+18,0.331695236206,1.27962151327,8.713455276549999
1.7177164521443274e+18,1.063650627166,3.0889914092999993,4.31267424775
1.7177164523443274e+18,0.32415840911500005,0.81215860746,9.06485703315
1.7177164525443274e+18,-1.135773860442857,-1.7745312718333335,11.765369502380953
1.7177164527443274e+18,-1.1951821059815,-2.8970605317500002,13.750076567499999
1.7177164529443274e+18,-0.6241869964545,-1.46362637334,9.512867889399999
1.7177164531443274e+18,-1.1811787261715,0.46059967802150004,9.84864214275
1.7177164533443274e+18,0.8099581832865,3.16557215885,3.98008087925
1.7177164535443274e+18,0.1403032379425,1.4335913314800002,8.523455383349999
1.7177164537443274e+18,-0.7944504317309999,-1.0074649658254997,10.466729324149998
1.7177164539443274e+18,-0.812607673712,-2.403484428449999,13.533783851
1.7177164541443274e+18,-1.1458243887761905,-1.268604779952381,11.389522508809524
1.7177164543443274e+18,-1.03383263398,-0.07351213074500004,9.608047462250003
1.7177164545443274e+18,-0.42343945313500003,2.2207968291299998,7.041260124350001
1.7177164547443274e+18,-0.015155982935000001,2.43332487505,5.535870597845
1.7177164549443274e+18,-0.43536215979000004,0.04501139831779999,9.797994964499999
1.7177164551443274e+18,-1.371335792535,-1.94760742943,11.84570672605
1.7177164553443274e+18,-1.0806328125049998,-1.6837810592215,13.031383597500001
1.7177164555443274e+18,-0.37913301742285715,-0.7404602050319048,10.19977517209524
1.7177164557443274e+18,-0.9219103774210001,0.7404427414200001,9.860025970399999
1.7177164559443274e+18,0.6952442321824999,2.6380915603499995,5.856309242375
1.7177164561443274e+18,-0.024646247840499992,2.4952361297500003,6.05562725835
1.7177164563443274e+18,-1.2129202194915,-0.16807049558999995,10.54154374675
1.7177164565443274e+18,-1.2515473937250001,-1.55467453775,12.465882063999999
1.7177164567443274e+18,-1.4694342956750002,-0.5383030929349999,12.277147042000001
1.7177164569443274e+18,-1.04347258759,0.09801617432750001,9.963850066500003
1.7177164571443274e+18,-0.3891407776361905,1.5396269007142858,10.162246071428573
1.7177164573443274e+18,0.3047437820525,3.00976116935,6.5791710431
1.7177164575443274e+18,0.15786920933017504,3.06558009335,5.068392723049999
1.7177164577443274e+18,-0.38035903934890003,1.3328358535000002,9.54127880835
1.7177164579443274e+18,-1.2056827698519998,-0.6925573196349999,11.993292321
1.7177164581443274e+18,-0.24594605254149998,-0.298958312988,11.12341374235
1.7177164583443274e+18,-0.5611605606155001,0.11604618073586001,9.8129413835
1.7177164585443274e+18,-0.48873367310476196,-0.17479365757785714,9.883040967476191
1.7177164587443274e+18,-0.37229830170165,0.037609291080215,9.8441439973
1.7177164589443274e+18,-0.166401466364,0.018651214595499996,9.84373235325
1.7177164591443274e+18,-0.64479164885,-0.051560279845399994,9.771851829549998
1.7177164593443274e+18,-0.9835970994000001,0.184865570067,9.7545927201
1.7177164595443274e+18,-0.9321041794449998,0.17432748414000002,9.7318624879
1.7177164597443274e+18,-0.7563845901449999,0.11410771179749998,9.7032569734
1.7177164599443274e+18,-0.78454103851,0.13311817931349998,9.752871299749998
1.7177164601443274e+18,-0.8232594517238093,0.12536786759904764,9.75267634804762
1.7177164603443274e+18,-0.8045394516,0.10613678740759999,9.766373222199999
1.7177164605443274e+18,-1.04026924896,0.02160008239865,9.6533806915
1.7177164607443274e+18,-1.3233904953500002,0.42765319061499996,9.74066418455
1.7177164609443274e+18,-1.4872173156500001,0.5802758102400001,9.74840309155
1.7177164611443274e+18,-0.9794132995549999,0.7425533523550001,9.750932830899998
1.7177164613443274e+18,-1.09072931671,0.9262363814999999,9.6763504258
1.7177164615443274e+18,-1.035268576404762,0.9497250366142858,9.697583770809523
1.7177164617443274e+18,-0.9553583221050003,1.0507624282999999,9.4951597136
1.7177164619443274e+18,-1.0047256622,0.8454418945400001,9.75824512485
1.7177164621443274e+18,-1.0799442444499998,0.833406921385,9.70169272615
1.7177164623443274e+18,-1.1669059065999998,0.8674835586549999,9.701647819449999
1.7177164625443274e+18,-1.1177107086,0.8369171218849999,9.6865666809
1.7177164627443274e+18,-1.0282866669549997,0.8154592437749999,9.76375366955
1.7177164629443274e+18,-1.0789634268047623,0.9176845223333332,9.718704136380952
1.7177164631443274e+18,-0.9835970992649999,0.9596394195600002,9.6806165543
1.7177164633443274e+18,-0.92193283079,0.9863064651099999,9.69110973355
1.7177164635443274e+18,-0.8597296829250001,0.9760228501249999,9.653103767450002
1.7177164637443274e+18,-0.917187698365,0.971696846025,9.704155105549999
1.7177164639443274e+18,-0.90760762024,0.9707612915299999,9.66849176785
1.7177164641443274e+18,-0.903902824405,0.9594298553349999,9.73961636345
1.7177164643443274e+18,-0.9071585540699999,0.9768910446250001,9.66933002465
1.7177164645443274e+18,-0.9481639971,0.9620137678142856,9.704547860190477
1.7177164647443274e+18,-0.9097182312050001,0.9730664977850001,9.6918282394
1.7177164649443274e+18,-0.93438693238,0.9609417114249998,9.65945056915
1.7177164651443274e+18,-0.987638694745,0.9239985351749999,9.67699408725
1.7177164653443274e+18,-1.0028919753999999,0.82319815063,9.78375956725
1.7177164655443274e+18,-0.9473724288949998,0.8544307022050001,9.7382092895
1.7177164657443274e+18,-0.9552834777399998,0.9160126418999999,9.70960377505
1.7177164659443274e+18,-0.9091593933190476,0.9960643877571429,9.70127609247619
1.7177164661443274e+18,-0.8314235458400001,1.000504440355,9.6787529296
1.7177164663443274e+18,-0.9723030853550002,1.0895991669,9.625486198449998
1.7177164665443274e+18,-0.65696134186,1.00705332174,9.699963821499999
1.7177164667443274e+18,-0.8730968856850001,1.001731887815,9.694642387350001
1.7177164669443274e+18,-0.947544570945,1.03196900937,9.696865264900001
1.7177164671443274e+18,-0.69731742097,0.9088650054950002,9.7297743301
1.7177164673443274e+18,-0.8155340881300001,0.93645263672,9.725171402
1.7177164675443274e+18,-0.8437596784285714,0.9358752659285715,9.696122523714285
1.7177164677443274e+18,-0.8047115936349998,0.895909446725,9.693414939849998
1.7177164679443274e+18,-0.79512403106,0.88576055146,9.72660092925
1.7177164681443274e+18,-0.816349891665,0.8598344650299999,9.753440116750001
1.7177164683443274e+18,-0.8149952087399999,0.874967994705,9.737917396550001
1.7177164685443274e+18,-0.799457519535,0.8823626174899999,9.72585997005
1.7177164687443274e+18,-0.80152322388,0.9235794067349999,9.719924812350001
1.7177164689443274e+18,-0.8079769461523809,0.9778237479142856,9.684261474666668
1.7177164691443274e+18,-0.8021294631950001,0.964294738835,9.647595222499998
1.7177164693443274e+18,-0.810601844785,0.9712328109799998,9.70177505485
1.7177164695443274e+18,-0.8386235732899999,0.95759616852,9.70420001225
1.7177164697443274e+18,-0.76339750672,0.8990753631550004,9.7745611954
1.7177164699443274e+18,-1.001649559055,0.758270668025,9.68116291815
1.7177164701443274e+18,-0.889151001005,0.984959266705,9.6881758346
1.7177164703443274e+18,-0.9306521987149999,0.8673787765650001,9.753769432099999
1.7177164705443274e+18,-1.305798863009524,0.911055450457143,9.658358197904764
1.7177164707443274e+18,-1.3888344039999996,0.9979821853949998,9.66531088255
1.7177164709443274e+18,-1.3095143509,1.042784019495,9.623817169150001
1.7177164711443274e+18,-0.94106304934,1.0557695159799998,9.64609833525
1.7177164713443274e+18,-0.8670419769600001,1.04177362058,9.60316012575
1.7177164715443274e+18,-1.0712323608600003,0.9149797897399999,9.739998069799999
1.7177164717443274e+18,-1.0356139297400002,0.901919448855,9.7005550919
1.7177164719443274e+18,-0.9891644505047618,0.8135867091619047,9.72650220590476
1.7177164721443274e+18,-0.957244400045,0.83435744476,9.7128894424
1.7177164723443274e+18,-0.990385482855,0.7883206787100001,9.71157966625
1.7177164725443274e+18,-0.977325141875,0.794697418215,9.71871233365
1.7177164727443274e+18,-0.95184812165,0.772648269655,9.710097747899999
1.7177164729443274e+18,-0.9642573165650001,0.7739954681350001,9.71735016625
1.7177164731443274e+18,-0.9346788253849999,0.783006729125,9.7410758286
1.7177164733443274e+18,-0.93184970857,0.8210052108699999,9.719453292899999
1.7177164735443274e+18,-0.9368161664666668,0.8571746390238095,9.71571036204762
1.7177164737443274e+18,-0.9409358139049999,0.8715476074299999,9.702583374
1.7177164739443274e+18,-0.9484950942999999,0.926835136415,9.6755121689
1.7177164741443274e+18,-0.956750427265,0.9139020309449999,9.66692003625
1.7177164743443274e+18,-0.95457245637,0.91551118469,9.702463623049999
1.7177164745443274e+18,-0.955328384405,0.88688321686,9.69639374545
1.7177164747443274e+18,-0.9595870284950001,0.8691750411949999,9.7088029403
1.7177164749443274e+18,-0.9445928519095239,0.8346144103999998,9.714078042142857
1.7177164751443274e+18,-0.9447753295899999,0.8098833389200001,9.71103330235
1.7177164753443274e+18,-0.8839792556550001,0.8616382141199999,9.703563835149998
1.7177164755443274e+18,-1.0906245346649999,0.73195539093,9.70262828075
1.7177164757443274e+18,-1.0059755630999998,0.8453820190649999,9.773266388
1.7177164759443274e+18,-0.9425000610450001,0.7852894821199999,9.678461036699998
1.7177164761443274e+18,-0.8358917541150002,0.8232355728,9.73264086925
1.7177164763443274e+18,-1.0122165134666667,0.8800627572047619,9.704020385809523
1.7177164765443274e+18,-1.09207651527,0.8712482300150001,9.6837824708
1.7177164767443274e+18,-0.8911493454400002,0.8787551193499998,9.632020111050002
1.7177164769443274e+18,-0.9505084075200001,0.8585695953349999,9.92103909345
1.7177164771443274e+18,-0.8872125320450002,1.00572109221,9.3385778274
1.7177164773443274e+18,-0.931617691055,0.774534347535,9.83233355635
1.7177164775443274e+18,-0.932897529565,0.8693471832349999,9.717619606000003
1.7177164777443274e+18,-0.9969193954349999,0.6745123443600002,9.72109986895
1.7177164779443274e+18,-0.9701397268857144,0.7066091700904763,9.778059278285715
1.7177164781443274e+18,-0.8842112731950001,0.7680303726250001,9.732468727149998
1.7177164783443274e+18,-0.9400900726649999,0.7799455947999999,9.70584658805
1.7177164785443274e+18,-0.9245748367249998,0.8690852279649999,9.701228691050002
1.7177164787443274e+18,-0.9274488601599999,0.8740623779300002,9.669472229150001
1.7177164789443274e+18,-0.949004035935,0.8464522933800002,9.6981301345
1.7177164791443274e+18,-0.9292750625549999,0.85653382873,9.71182665245
1.7177164793443274e+18,-0.9608946664,0.8288407026,9.70295830852381
1.7177164795443274e+18,-0.95466975406,0.8396788787749999,9.72916060625
1.7177164797443274e+18,-0.9267752609300001,0.83090711976,9.689717628399999
1.7177164799443274e+18,-0.9566082229800001,0.80728623963,9.717215446500001
1.7177164801443274e+18,-0.93515034485,0.8397387542699999,9.6961766967
1.7177164803443274e+18,-0.9417067108149999,0.809771072385,9.698444480900001
1.7177164805443274e+18,-0.9340052261299998,0.806837173445,9.7163023453
1.7177164807443274e+18,-0.914740287775,0.7805817718450001,9.70806198115
1.7177164809443274e+18,-0.9283480616809524,0.7460984802190476,9.722617427285714
1.7177164811443274e+18,-0.9112226028399999,0.7599621505799999,9.718682396099998
1.7177164813443274e+18,-0.921311622615,0.7323520660349999,9.71837553405
1.7177164815443274e+18,-0.9254654846199999,0.72910382079,9.719602981600001
1.7177164817443274e+18,-0.9094263381900001,0.71590876006,9.72093521115
1.7177164819443274e+18,-0.9258696441749998,0.699719924925,9.74361305245
1.7177164821443274e+18,-0.9224791946799998,0.769893997195,9.7222599564
1.7177164823443274e+18,-0.9095728193047619,0.7807193429190475,9.723601096000001
1.7177164825443274e+18,-0.9223444747949998,0.82545096588,9.7171106644
1.7177164827443274e+18,-0.9605674896349999,0.8728049926700001,9.679516342250002
1.7177164829443274e+18,-0.979473175035,0.862326782225,9.6613591003
1.7177164831443274e+18,-0.95378659057,0.85821782684,9.70420001225
1.7177164833443274e+18,-0.9580003280649999,0.8172330551250001,9.70735095965
1.7177164835443274e+18,-0.9896744613349998,0.814239280705,9.69968689725
1.7177164837443274e+18,-0.9280925216750001,0.763008316045,9.726181800900001
1.7177164839443274e+18,-0.918575526642857,0.7553221566333332,9.721248844714285
1.7177164841443274e+18,-0.9361981658899999,0.75559123994,9.721945609950001
1.7177164843443274e+18,-0.90392527771,0.731820671085,9.718704849149999
1.7177164845443274e+18,-0.9041348419149999,0.72753957367,9.75161391445
1.7177164847443274e+18,-0.91786878205,0.7399936752350001,9.726683258000001
1.7177164849443274e+18,-0.9047111434899999,0.7681426391449999,9.7251339798
1.7177164851443274e+18,-0.91200098419,0.8031248931949999,9.7154865416
1.7177164853443274e+18,-0.9326248822761907,0.8636967904238094,9.707156720904761
1.7177164855443274e+18,-0.943405677795,0.881180076605,9.646816841100001
1.7177164857443274e+18,-0.9624984741399999,0.8709937591500001,9.68646189875
1.7177164859443274e+18,-0.9216035156299999,0.8443491668700001,9.710382156399998
1.7177164861443274e+18,-0.9372160491899999,0.79179345703,9.7163397674
1.7177164863443274e+18,-0.9353449401899999,0.7868911514250001,9.7170807267
1.7177164865443274e+18,-0.90382798004,0.740375381475,9.72207284555
1.7177164867443274e+18,-0.9039773123571431,0.7452431160952381,9.730579441619048
1.7177164869443274e+18,-0.9091643829299999,0.7302339706550001,9.712305656450003
1.7177164871443274e+18,-0.9013132095299999,0.72023476409,9.76665014645
1.7177164873443274e+18,-0.8793613586300001,0.774437049875,9.72573273465
1.7177164875443274e+18,-0.9109456787200001,0.80137353516,9.71464080045
1.7177164877443274e+18,-0.9194405136199999,0.8592357101400001,9.703474021999998
1.7177164879443274e+18,-0.93050999451,0.8690777435449999,9.699350097699998
1.7177164881443274e+18,-0.92869876099,0.9127194900449999,9.65454826355
1.7177164883443274e+18,-0.9761130196714285,0.8881388201142858,9.685373447904762
1.7177164885443274e+18,-0.9191561050450001,0.8432339859099999,9.7065201874
1.7177164887443274e+18,-0.93306218719,0.8307499465899999,9.70722372425
1.7177164889443274e+18,-0.9244925079400002,0.7893011398349998,9.7140869521
1.7177164891443274e+18,-0.9226363677849999,0.778022094725,9.729998863099999
1.7177164893443274e+18,-0.9107959899900001,0.7546706542949999,9.710142654399998
1.7177164895443274e+18,-0.9145905990650001,0.74113879395,9.718764724900002
1.7177164897443274e+18,-0.9084964861142857,0.731942204057143,9.74822132647619
1.7177164899443274e+18,-0.9015527114899999,0.77311978912,9.730732337949998
1.7177164901443274e+18,-0.915571060175,0.805437583915,9.72107741555
1.7177164903443274e+18,-0.94005265045,0.8204813003549999,9.709768432499999
1.7177164905443274e+18,-0.9506506118899999,0.8729397125249999,9.69098249815
1.7177164907443274e+18,-0.9579105148549998,0.8834254074100001,9.63831452175
1.7177164909443274e+18,-0.9595870284949999,0.857454414375,9.69997879035
1.7177164911443274e+18,-0.9340725860549999,0.816656753545,9.7069917067
1.7177164913443274e+18,-0.9399810137000001,0.7793792724714286,9.728590720047617
1.7177164915443274e+18,-0.9131311340349999,0.734500099185,9.72219259645
1.7177164917443274e+18,-0.920690414425,0.722105873105,9.723958923400001
1.7177164919443274e+18,-0.91524922944,0.720818550125,9.753238037150002
1.7177164921443274e+18,-0.91895402528,0.7517442398099999,9.729804267899999
1.7177164923443274e+18,-0.924035957335,0.7960446167000002,9.7257926101
1.7177164925443274e+18,-0.9381291503950001,0.8324189758549998,9.70797216815
1.7177164927443274e+18,-0.9564539010380951,0.8777105058952381,9.698410622761905
1.7177164929443274e+18,-0.9677525481649999,0.88440586854,9.657332473799999
1.7177164931443274e+18,-0.97654676056,0.8939485244699998,9.66328260045
1.7177164933443274e+18,-0.9641675033549999,0.8508082351650001,9.684141723649997
1.7177164935443274e+18,-0.979518081735,0.80312489318,9.72759635925
1.7177164937443274e+18,-0.92942475128,0.741557922365,9.733613845849998
1.7177164939443274e+18,-0.9322912902899999,0.728984069825,9.720643318099999
1.7177164941443274e+18,-0.9398879928599999,0.7281607818549999,9.72282877345
1.7177164943443274e+18,-0.9248268127333334,0.7058535984476192,9.760089503761904
1.7177164945443274e+18,-0.913243400575,0.7737185440049998,9.7255531082
1.7177164947443274e+18,-0.9495728530950001,0.799569786065,9.71502250675
1.7177164949443274e+18,-0.9327478408750001,0.848413215625,9.707680274999998
1.7177164951443274e+18,-0.9543254699649999,0.87781208038,9.6955180663
1.7177164953443274e+18,-0.95967684175,0.9147777099600001,9.6460983353
1.7177164955443274e+18,-0.9852361908399999,0.8916058959900001,9.68206853485
1.7177164957443274e+18,-0.9419768633000002,0.8503388541142857,9.709437691761904
1.7177164959443274e+18,-0.9424850921599999,0.82652124025,9.7095888062
1.7177164961443274e+18,-0.9422680435149999,0.783066604615,9.71407198335
1.7177164963443274e+18,-0.9173972625700001,0.7714283065800001,9.724422958400002
1.7177164965443274e+18,-0.91928334046,0.74010594178,9.719580528299996
1.7177164967443274e+18,-0.90494316101,0.7461533660899999,9.75981685635
1.7177164969443274e+18,-0.9106537857000001,0.7859555969199999,9.72512649535
1.7177164971443274e+18,-0.9235943756000001,0.8282127227749999,9.7196478882
1.7177164973443274e+18,-0.9044477626285715,0.8380073547333333,9.712474234523809
1.7177164975443274e+18,-0.9382414169399999,0.8800499267699999,9.6873899688
1.7177164977443274e+18,-0.9552759933499999,0.91618478394,9.6359045333
1.7177164979443274e+18,-0.942485092155,0.8614286499,9.69683532705
1.7177164981443274e+18,-0.91673114777,0.8401204605,9.710711471649997
1.7177164983443274e+18,-0.9316027221800001,0.7921826477100001,9.720635833749999
1.7177164985443274e+18,-0.9118363265949998,0.7715181198249998,9.726428787249999
1.7177164987443274e+18,-0.9045047869,0.7399612426761905,9.730372728571428
1.7177164989443274e+18,-0.90702383424,0.7532111892700001,9.7516139146
1.7177164991443274e+18,-0.8946670303250001,0.766331405635,9.7278358612
1.7177164993443274e+18,-0.91546627808,0.8104446716199998,9.7197227325
1.7177164995443274e+18,-0.9091119918849998,0.8309295730549999,9.7122382965
1.7177164997443274e+18,-0.9225839767449999,0.8775276718299999,9.69876631165
1.7177164999443274e+18,-0.9484576721150001,0.9242230682399999,9.6355602494
1.7177165001443274e+18,-0.9460469708904762,0.8811177063000001,9.685979330809525
1.7177165003443274e+18,-0.9237515487600001,0.858240280145,9.71163205705
1.7177165005443274e+18,-0.9246721344,0.81407462311,9.71057675175
1.7177165007443274e+18,-0.92431288147,0.8006176071100001,9.71648197175
1.7177165009443274e+18,-0.884570526125,0.7615862732,9.73164543915
1.7177165011443274e+18,-0.8861123199550001,0.7522157592650001,9.745603912250001
1.7177165013443274e+18,-0.9007593612650002,0.7441625060999999,9.74269995115
1.7177165015443274e+18,-0.8956624603350001,0.801613037105,9.715494026150001
1.7177165017443274e+18,-0.9119892229285714,0.8278641619000001,9.712894788380954
1.7177165019443274e+18,-0.9192234649599997,0.888664512645,9.7063704987
1.7177165021443274e+18,-0.934267181395,0.9037157135000001,9.65058151245
1.7177165023443274e+18,-0.95844939421,0.9029897232000001,9.672301345849998
1.7177165025443274e+18,-0.9167161789,0.8548647994999999,9.711938919149999
1.7177165027443274e+18,-0.9217307510399999,0.8356447677700001,9.71157966615
1.7177165029443274e+18,-0.92761351776,0.8132213973950002,9.709484024100002
1.7177165031443274e+18,-0.9030007716666666,0.7871131897047619,9.724698813238096
1.7177165033443274e+18,-0.9001606063800001,0.7511754226749999,9.72231234745
1.7177165035443274e+18,-0.9011784896849999,0.739215293875,9.75917319475
1.7177165037443274e+18,-0.8911119232000001,0.78114310455,9.725972236799999
1.7177165039443274e+18,-0.908595565785,0.8086558914199999,9.7245127716
1.7177165041443274e+18,-0.9069415054299999,0.851107612615,9.714640800400002
1.7177165043443274e+18,-0.935180282595,0.8658968582100002,9.681155433749998
1.7177165045443274e+18,-0.9566456451400001,0.9037231979349999,9.641008918699999
1.7177165047443274e+18,-0.9420267595809525,0.8552857099285714,9.70094107495238
1.7177165049443274e+18,-0.91138726044,0.8401578827,9.71830817415
1.7177165051443274e+18,-0.931961975105,0.79475729371,9.7184279251
1.7177165053443274e+18,-0.90658225251,0.7718998260450001,9.720995086700002
1.7177165055443274e+18,-0.9060807952950001,0.748069381715,9.7198424836
1.7177165057443274e+18,-0.9020092620850001,0.7663239211949999,9.725560592749998
1.7177165059443274e+18,-0.9036408691350003,0.751444862365,9.720007141249999
1.7177165061443274e+18,-0.896008169990476,0.7455923897857143,9.735996747666666
1.7177165063443274e+18,-0.8953331451499998,0.77298506929,9.7333518905
1.7177165065443274e+18,-0.91793614197,0.83158820343,9.7153967285
1.7177165067443274e+18,-0.9252409515350001,0.8557329940750001,9.705801681449998
1.7177165069443274e+18,-0.9283694458000001,0.875693984985,9.6843662567
1.7177165071443274e+18,-0.9429566116499999,0.88149442291,9.674277236950001
1.7177165073443274e+18,-0.9394988021799998,0.889412956235,9.7055771485
1.7177165075443274e+18,-0.9382489013649999,0.869407058715,9.697164642300002
1.7177165077443274e+18,-0.9418699428095236,0.8613873073095238,9.697968684619047
1.7177165079443274e+18,-0.9262513504049998,0.820900428765,9.7042449189
1.7177165081443274e+18,-0.9193881225599998,0.808341545095,9.7159805145
1.7177165083443274e+18,-0.9184450836250001,0.809292068485,9.7791117324
1.7177165085443274e+18,-0.89922505187,0.859714714045,9.71758218385
1.7177165087443274e+18,-1.039580680845,0.8061186675999998,9.6928610915
1.7177165089443274e+18,-0.85660118864,0.97344820408,9.6937068329
1.7177165091443274e+18,-0.9464675248952381,0.9090453447523811,9.686563829714286
1.7177165093443274e+18,-1.1798464965650002,1.032418075555,9.62186373125
1.7177165095443274e+18,-1.138562347425,1.0431806945400002,9.6644277192
1.7177165097443274e+18,-0.888013366715,0.8477321319650001,9.70193971255
1.7177165099443274e+18,-1.2705653457500001,1.00150735481,9.63910787195
1.7177165101443274e+18,-1.1954739991,0.51248927306,9.7531931302
1.7177165103443274e+18,-1.185444854765,0.4370536422750001,9.730612587049999
1.7177165105443274e+18,-1.35740725705,0.39568716432000006,9.674823600649999
1.7177165107443274e+18,-1.3356225586666668,0.39831455774761904,9.73697328842857
1.7177165109443274e+18,-1.3616284789999997,0.47169909667499993,9.6865891341
1.7177165111443274e+18,-1.203055732645,0.539964637755,9.66300567635
1.7177165113443274e+18,-1.345813865705,0.6891968078649999,9.60078755955
1.7177165115443274e+18,-0.7651788024899999,0.4375700683649999,9.7217135928
1.7177165117443274e+18,-0.9796977080729998,0.579639633175,9.768910445949999
1.7177165119443274e+18,-1.095115196265,0.43261537170000014,9.767211479250001
1.7177165121443274e+18,-1.0616351755142859,0.5079579816571429,9.690220511285716
1.7177165123443274e+18,-1.55460717775,0.5063370666399999,9.616609657199998
1.7177165125443274e+18,-0.7592137069830001,0.46875771331999994,9.78167140985
1.7177165127443274e+18,-0.528902641315,0.4065096588125,9.771507545250001
1.7177165129443274e+18,-1.137873779215,0.48115193939499995,9.7266907425
1.7177165131443274e+18,-0.6650145950349999,0.4623585205049999,9.772802352900001
1.7177165133443274e+18,-0.8060438232449998,0.46002337646499997,9.7510001909
1.7177165135443274e+18,-0.6809767586857143,0.4664015415714287,9.741984296428573
1.7177165137443274e+18,-0.7258480911299999,0.43563159942,9.807305602949999
1.7177165139443274e+18,-1.00340840151,0.7105648727449999,9.576972084000001
1.7177165141443274e+18,-0.6500606918099999,0.4312606887755,9.8244449618
1.7177165143443274e+18,-0.576241699215,0.4357513504,9.730073707599997
1.7177165145443274e+18,-0.8038733368,0.49589627838500006,9.745341957299999
1.7177165147443274e+18,-0.73550301364,0.49365094756499994,9.710232467600001
1.7177165149443274e+18,-0.756085212754,0.36203713987550007,9.811556762550001
1.7177165151443274e+18,-0.5416023036380951,0.38411551338571426,9.764330684095237
1.7177165153443274e+18,-0.9695188751700001,0.4865407333199999,9.77127552815
1.7177165155443274e+18,-1.2261227645900001,0.37890705871499997,9.735829239100003
1.7177165157443274e+18,-0.8747584304750001,0.6346277847349999,9.670362876949998
1.7177165159443274e+18,-0.68682424161,0.8564664687849998,9.632776038900001
1.7177165161443274e+18,-0.8369695128774998,0.68227370454,9.647535346849999
1.7177165163443274e+18,-0.56520215607,0.4754113769550001,9.922296478449999
1.7177165165443274e+18,-0.5899874005904762,0.4027767072428571,9.680212751047618
1.7177165167443274e+18,-0.672252044675,0.6099515991100002,9.71041209415
1.7177165169443274e+18,-0.58495358276,0.25439598083049997,9.861537826900001
1.7177165171443274e+18,-0.528588294985,0.518536697385,9.738201804900001
1.7177165173443274e+18,-0.7190671920749999,0.59532701111,9.7833853458
1.7177165175443274e+18,-0.33124617003699997,0.8973314895349999,9.7459556812
1.7177165177443274e+18,-0.8342002716350001,0.80855110928,9.67944898245
1.7177165179443274e+18,-0.575942321775,0.8696241073749998,9.7006374204
1.7177165181443274e+18,-0.346180114747619,0.5862024143857143,9.871101510285715
1.7177165183443274e+18,-1.251809349115,0.8611517257500001,10.469378814550002
1.7177165185443274e+18,-0.8778644713749999,0.8283324738145001,11.792642074000002
1.7177165187443274e+18,-1.3287194137715002,0.9193806381049999,9.81583037605
1.7177165189443274e+18,-0.425123451269,1.74058044435,8.8093683239
1.7177165191443274e+18,-0.139203025812,2.6718239136,3.8735848388000003
1.7177165193443274e+18,-0.9874665527800002,1.5934289474550003,9.41102716815
1.7177165195443274e+18,-2.10758154732381,-0.8735120936666666,10.965176370666667
1.7177165197443274e+18,-1.9632573852650002,-0.7587047653499999,12.473044670499998
1.7177165199443274e+18,-0.9911414108000003,0.27949129489159996,10.886187056699999
1.7177165201443274e+18,-1.06959326936,1.3385689315899998,10.80854351845
1.7177165203443274e+18,-0.024623794569999996,2.4021147766000004,7.864458274699999
1.7177165205443274e+18,0.17943186953900003,2.6613007966,4.0108419112
1.7177165207443274e+18,-0.7755896529849999,0.70342472081,9.61402752605
1.7177165209443274e+18,-1.57586297606,-1.7661472779,11.611137016
1.7177165211443274e+18,-1.7019963946080956,-1.3154716055761906,12.213109851428571
1.7177165213443274e+18,-1.1513757018800002,-0.7963365096745,11.06575364725
1.7177165215443274e+18,-1.172189918505,0.1716854782175,9.44002187345
1.7177165217443274e+18,-1.2945005722650003,1.5367567977899999,9.58087147505
1.7177165219443274e+18,-0.4973183212465,2.68725682065,4.23503819274
1.7177165221443274e+18,-0.6669455795230002,1.100878211981,8.11546380625
1.7177165223443274e+18,-1.4404695282617002,-1.26761647798,11.649449844500001
1.7177165225443274e+18,-0.7021969168714287,-1.6788017707047618,12.660194418095237
1.7177165227443274e+18,-1.011005104055,-0.667664085395,11.179711669600001
1.7177165229443274e+18,-1.169562881425,0.3429144058375,9.084608459499998
1.7177165231443274e+18,-0.4976326675250001,1.494342498765,9.9436046681
1.7177165233443274e+18,-0.429307250964,2.4525823287999997,8.966212165950001
1.7177165235443274e+18,-0.46142296603349997,2.97364876555,4.542364105249999
1.7177165237443274e+18,-0.445967605501,1.5621065826699998,8.9691834873
1.7177165239443274e+18,-1.0391914901715,0.027250831607000002,11.8887197805
1.7177165241443274e+18,-1.300253252366667,-0.8275006321761905,11.577210780476191
1.7177165243443274e+18,-1.6035703583,-0.5845344543700001,11.197644379
1.7177165245443274e+18,-1.9383117599,0.11966116333399997,9.63896566795
1.7177165247443274e+18,-2.153938362065,1.34255065156,9.6161680753
1.7177165249443274e+18,-1.5375426636025002,1.8668877868999996,9.157065284949999
1.7177165251443274e+18,-0.2968626709215,2.59398577885,4.870586563050001
1.7177165253443274e+18,-1.52544033056,1.9698586578449997,8.1649209592
1.7177165255443274e+18,-2.2008875166238093,-0.8478868103742856,11.118956582714288
1.7177165257443274e+18,-2.3794369353800002,-0.974376274105,11.84075951345
1.7177165259443274e+18,-0.690536521925,-0.008292755124499998,9.63290327485
1.7177165261443274e+18,-0.4681739273519999,-0.1681827621511,9.897665199
1.7177165263443274e+18,-0.157644676201325,0.1652338943435,9.82214723965
1.7177165265443274e+18,-0.20086729431195,0.2587668914767499,9.7185776136
1.7177165267443274e+18,-0.010455757148500009,0.0509989471321,9.7988182524
1.7177165269443274e+18,-0.5068174961652381,0.08190824236980954,9.855548139190475
1.7177165271443274e+18,-0.730832725515,0.5482050018400001,9.746958594899999
1.7177165273443274e+18,-0.9558298415450001,0.7849002914450001,9.6986914672
1.7177165275443274e+18,-0.8351807327249998,0.821686294555,9.719670341499999
1.7177165277443274e+18,-0.5826633453400001,0.8343349914599999,9.711250351
1.7177165279443274e+18,-0.62834085846,0.856429046635,9.6859305037
1.7177165281443274e+18,-0.619254753115,0.7755148086600001,9.7068644714
1.7177165283443274e+18,-0.37137023163999994,0.55840628815,9.7873970026
1.7177165285443274e+18,-0.36903972079999997,0.851935533747619,9.66389668052381
1.7177165287443274e+18,-0.6580465850699999,0.5849386138525,9.7936689606
1.7177165289443274e+18,-0.8101677475199999,0.69695068359,9.848859191799999
1.7177165291443274e+18,-0.753742584225,0.7860978012050001,9.7167663804
1.7177165293443274e+18,-0.683822982755,0.7102430419999999,9.723120666549999
1.7177165295443274e+18,-0.61085721588,0.852978721655,9.732536087049999
1.7177165297443274e+18,-0.658495651255,0.8285345535200002,9.6587919388
1.7177165299443274e+18,-0.7489496939571428,0.8974123927571428,9.690427224333334
1.7177165301443274e+18,-0.71367839813,0.8012462997400001,9.72018676755
1.7177165303443274e+18,-0.7064409484849999,0.73212004853,9.78244230655
1.7177165305443274e+18,-0.721372398375,0.7388410720799999,9.724175972050002
1.7177165307443274e+18,-0.73025642395,0.703769004815,9.740926139749998
1.7177165309443274e+18,-0.711350738525,0.7072792053199999,9.72567285925
1.7177165311443274e+18,-0.72959030914,0.71253327943,9.744833015450002
1.7177165313443274e+18,-0.73042108155,0.716058448785,9.765490058900001
1.7177165315443274e+18,-0.6970576041142859,0.756541050504762,9.73396525795238
1.7177165317443274e+18,-0.7266713790849999,0.80659767151,9.72940759275
1.7177165319443274e+18,-0.726289672845,0.85498455048,9.71609278115
1.7177165321443274e+18,-0.712630577085,0.87582870483,9.7000461501
1.7177165323443274e+18,-0.737022354125,0.874137222275,9.68393964395
1.7177165325443274e+18,-0.7539671173,0.858839035035,9.709139740000001
1.7177165327443274e+18,-0.707099578855,0.8535176010199998,9.7111306
1.7177165329443274e+18,-0.7645743451952381,0.8173930794809524,9.732532522952381
1.7177165331443274e+18,-0.6971303100450001,0.7704478454749999,9.7224919738
1.7177165333443274e+18,-0.7057898025650001,0.7569608917100001,9.7425352935
1.7177165335443274e+18,-0.7262297973499998,0.73893836976,9.7305976181
1.7177165337443274e+18,-0.70024383545,0.703731582645,9.7794560166
1.7177165339443274e+18,-0.710287948615,0.7750732269399999,9.736832153349999
1.7177165341443274e+18,-0.7225624237100001,0.8171357574399998,9.7373710327
1.7177165343443274e+18,-0.6911128234849999,0.82776365661,9.718757240299999
1.7177165345443274e+18,-0.7282213701380952,0.8625919450999999,9.721897495904763
1.7177165347443274e+18,-0.7252792739800001,0.9137298889150001,9.690069396999998
1.7177165349443274e+18,-0.72378238677,0.9064999237,9.695862350499999
1.7177165351443274e+18,-0.73598950195,0.8873547363300001,9.696992500250001
1.7177165353443274e+18,-0.7208933944800001,0.89812483979,9.718233329899999
1.7177165355443274e+18,-0.7237374801550001,0.855426132195,9.7231506043
1.7177165357443274e+18,-0.7288194122250001,0.8304056625299999,9.722918586750001
1.7177165359443274e+18,-0.7364685058666667,0.8510659136095239,9.722524762809522
1.7177165361443274e+18,-0.708753639225,0.8007747802699999,9.733494094800001
1.7177165363443274e+18,-0.71890253449,0.788238349915,9.732588478150001
1.7177165365443274e+18,-0.717443069465,0.798065414425,9.719430839649998
1.7177165367443274e+18,-0.718124153135,0.75827815247,9.738815528899998
1.7177165369443274e+18,-0.710100837715,0.7912845153850001,9.7307173691
1.7177165371443274e+18,-0.710063415525,0.767963012695,9.726975151
1.7177165373443274e+18,-0.7149058456399999,0.7650515670750001,9.7467116088
1.7177165375443274e+18,-0.715226963595238,0.7822946385047619,9.734970310714285
1.7177165377443274e+18,-0.7224800949100001,0.79392652131,9.7219231567
1.7177165379443274e+18,-0.7302264862,0.8655376052799999,9.73630824275
1.7177165381443274e+18,-0.7110663299500001,0.86348686981,9.712837051399998
1.7177165383443274e+18,-0.745262718195,0.899187629695,9.716227500899999
1.7177165385443274e+18,-0.7634424133350001,0.9456884307800001,9.665520446799999
1.7177165387443274e+18,-0.75062905884,0.909942764265,9.705015815650002
1.7177165389443274e+18,-0.7512164088714286,0.9288684082047618,9.701411525190476
1.7177165391443274e+18,-0.752964202885,0.901223396295,9.712530189499999
1.7177165393443274e+18,-0.73421569061,0.847320487975,9.715456604100002
1.7177165395443274e+18,-0.7294181671149998,0.865589996345,9.71608529665
1.7177165397443274e+18,-0.7237225113149999,0.8020695877099999,9.722536880549999
1.7177165399443274e+18,-0.72526430511,0.8041951675449999,9.737273734999999
1.7177165401443274e+18,-0.700535728445,0.7661068725600001,9.730882026700002
1.7177165403443274e+18,-0.7180853053523809,0.7493346078095238,9.756090676333335
1.7177165405443274e+18,-0.7224875793450002,0.785222122195,9.743336128300001
1.7177165407443274e+18,-0.69174900055,0.794330680845,9.727641265900001
1.7177165409443274e+18,-0.7202048263599999,0.847335456855,9.728232536350001
1.7177165411443274e+18,-0.717981948845,0.8751925277800001,9.719370964050002
1.7177165413443274e+18,-0.729964530945,0.8753571853699998,9.6961243057
1.7177165415443274e+18,-0.730772850035,0.9191561050500001,9.6861250992
1.7177165417443274e+18,-0.7421192550750001,0.869369636535,9.695158813350002
1.7177165419443274e+18,-0.7261684962714287,0.8617294529476192,9.728861585380951
1.7177165421443274e+18,-0.7134688339249999,0.8251216506950001,9.727633781400002
1.7177165423443274e+18,-0.711994400025,0.7929909668,9.737026748649999
1.7177165425443274e+18,-0.70669541931,0.7967556381249999,9.7241385498
1.7177165427443274e+18,-0.718423530575,0.7512876892050001,9.73802966315
1.7177165429443274e+18,-0.715362396245,0.7767272872950001,9.757803543100001
1.7177165431443274e+18,-0.7125332794199999,0.7882757720899999,9.7372812194
1.7177165433443274e+18,-0.7037009321047618,0.8133728681190477,9.734307403619049
1.7177165435443274e+18,-0.71123847198,0.868276908875,9.723667030399998
1.7177165437443274e+18,-0.72890174102,0.8704024887000001,9.713173851049998
1.7177165439443274e+18,-0.73912548065,0.9301133194000002,9.6675711823
1.7177165441443274e+18,-0.726177406315,0.8847726058950002,9.70173014825
1.7177165443443274e+18,-0.7177798690799999,0.8680149536149999,9.7184054717
1.7177165445443274e+18,-0.72653665924,0.8547824707,9.71523207085
1.7177165447443274e+18,-0.7184908904849999,0.8026309204000001,9.736585167000001
1.7177165449443274e+18,-0.7132026018428571,0.808974870947619,9.731598750571427
1.7177165451443274e+18,-0.72158944701,0.7796462173450001,9.724437927050001
1.7177165453443274e+18,-0.71565428924,0.775806701655,9.748620139950003
1.7177165455443274e+18,-0.7228468322799999,0.768913536065,9.747295394999998
1.7177165457443274e+18,-0.7083345108,0.829559921265,9.7341751786
1.7177165459443274e+18,-0.71436696625,0.8579409027,9.716481971699999
1.7177165461443274e+18,-0.7326140213000001,0.8838295669499999,9.7296695481
1.7177165463443274e+18,-0.7219772120857142,0.9025730895999999,9.696970759809524
1.7177165465443274e+18,-0.7445591812149999,0.9118737487799999,9.674374534600002
1.7177165467443274e+18,-0.741168731695,0.9001531219500001,9.7029725648
1.7177165469443274e+18,-0.7223977661100001,0.8581205291749999,9.71958052825
1.7177165471443274e+18,-0.720077590945,0.86930976105,9.72384665675
1.7177165473443274e+18,-0.726611503605,0.8278834075900001,9.71612271885
1.7177165475443274e+18,-0.71780980681,0.810871284485,9.730507804750001
1.7177165477443274e+18,-0.7200102310199998,0.78105329133,9.7215713882
1.7177165479443274e+18,-0.7298750741095238,0.777404806952381,9.765086255809521
1.7177165481443274e+18,-0.70855904388,0.825870094295,9.7394292526
1.7177165483443274e+18,-0.7180942154100001,0.84812132265,9.742887062049999
1.7177165485443274e+18,-0.7178696822950001,0.89767577362,9.710494423099998
1.7177165487443274e+18,-0.7463853836150001,0.927935348535,9.7574218369
1.7177165489443274e+18,-0.6256165237499999,0.97686110684,9.670362876899999
1.7177165491443274e+18,-0.549170494075,1.0498268737549998,9.669330024550002
1.7177165493443274e+18,-0.49390862600952384,1.0693548366428571,9.668957584809522
1.7177165495443274e+18,-0.46964836121,0.9518331527549998,9.736188492
1.7177165497443274e+18,-0.54378170014,0.9531204757499999,9.7211522598
1.7177165499443274e+18,-0.5463488616850001,0.9056167602350002,9.720673256000001
1.7177165501443274e+18,-0.41060364532000004,0.8911268920949998,9.76731626135
1.7177165503443274e+18,-0.45678261565000006,0.955238571185,9.7173726195
1.7177165505443274e+18,-0.45875850677,0.9261540527250001,9.6779296417
1.7177165507443274e+18,-0.479565238955,0.836355789175,9.763139945999999
1.7177165509443274e+18,-0.6338818359333334,0.8826145935095239,9.767980237714287
1.7177165511443274e+18,-0.6352564773449999,0.911087883005,9.75176360325
1.7177165513443274e+18,-0.6138360214249998,0.98994390109,9.7240487366
1.7177165515443274e+18,-0.6484440536549999,1.027755271915,9.71768696605
1.7177165517443274e+18,-0.590566909795,1.1213780822500001,9.675108009350001
1.7177165519443274e+18,-0.626656860345,1.0996058579499999,9.612261200099999
1.7177165521443274e+18,-0.545188774105,1.082735939055,9.743074172899998
1.7177165523443274e+18,-0.5973435320285715,1.006414293561905,9.702245505190476
1.7177165525443274e+18,-0.6322776718149999,1.02785256956,9.74020763405
1.7177165527443274e+18,-0.56449861908,1.0854378204550001,9.6869858092
1.7177165529443274e+18,-0.5328319702150001,1.06743775186,9.702867782599998
1.7177165531443274e+18,-0.48666796875500007,1.12428204345,9.6672119294
1.7177165533443274e+18,-0.526889328,1.0460771713049999,9.74899436195
1.7177165535443274e+18,-0.566923576365,1.04398901367,9.7133235397
1.7177165537443274e+18,-0.524793685915,1.005593856825,9.71092103575
1.7177165539443274e+18,-0.5772282191809525,0.9529754202666668,9.73402941009524
1.7177165541443274e+18,-0.6238202590849999,1.013699501005,9.715516479549999
1.7177165543443274e+18,-0.6184838561949999,0.96527519985,9.709686103749998
1.7177165545443274e+18,-0.6179374923700001,0.9586290206750002,9.690338836699999
1.7177165547443274e+18,-0.6202801208550001,0.92690998077,9.708585891800002
1.7177165549443274e+18,-0.67568740082,0.8400531005849998,9.736697433500002
1.7177165551443274e+18,-0.653930145265,0.8163199539200001,9.7871200791
1.7177165553443274e+18,-0.6236245945428571,0.8566115243095238,9.738284846761903
1.7177165555443274e+18,-0.656886497495,0.889929382325,9.7221776276
1.7177165557443274e+18,-0.6565796356050001,0.948839378365,9.719894874599998
1.7177165559443274e+18,-0.63738205719,0.94389216612,9.71000793465
1.7177165561443274e+18,-0.6529945907599999,0.98466737363,9.69816755685
1.7177165563443274e+18,-0.6740557937649999,1.0105111312200001,9.6501174775
1.7177165565443274e+18,-0.67091233062,0.942732078545,9.7006374207
1.7177165567443274e+18,-0.6528352791952381,0.9344140189000001,9.726587742238095
1.7177165569443274e+18,-0.6620357894850001,0.8928258590699999,9.7072611466
1.7177165571443274e+18,-0.6808965683000001,0.84280737304,9.745686241100001
1.7177165573443274e+18,-0.648354240415,0.820174438465,9.73438474285
1.7177165575443274e+18,-0.6581738204900001,0.7916287994450001,9.730822151199998
1.7177165577443274e+18,-0.6733896789500001,0.799719474795,9.733800956600003
1.7177165579443274e+18,-0.67073270417,0.772446189875,9.760378189099999
1.7177165581443274e+18,-0.6676042099000001,0.8538394317649999,9.739122390800002
1.7177165583443274e+18,-0.6593431745333335,0.877482408804762,9.722695835714287
1.7177165585443274e+18,-0.6757098541199998,0.9189689941399999,9.726421302850001
1.7177165587443274e+18,-0.6501430206300001,0.9533450088499998,9.6950166092
1.7177165589443274e+18,-0.66634682465,0.9579703903250001,9.6570929719
1.7177165591443274e+18,-0.68002837372,0.951354148865,9.701400833200001
1.7177165593443274e+18,-0.6600374450700001,0.9041348419249999,9.722215049750002
1.7177165595443274e+18,-0.65784450532,0.9145531768849999,9.71690110005
1.7177165597443274e+18,-0.6665496172238095,0.8754152788523809,9.730686362142858
1.7177165599443274e+18,-0.65652724456,0.8559500427250001,9.730253334050001
1.7177165601443274e+18,-0.6566170577999999,0.8417445831249999,9.72362960815
1.7177165603443274e+18,-0.65098127746,0.8244779891749999,9.735252937350001
1.7177165605443274e+18,-0.65494802857,0.8201445007249999,9.745154846150001
1.7177165607443274e+18,-0.674093215925,0.8402402114950001,9.742729889
1.7177165609443274e+18,-0.6681131515550001,0.886291946405,9.730657493550002
1.7177165611443274e+18,-0.6704707489049999,0.9013955383350002,9.712343078599998
1.7177165613443274e+18,-0.6874917820428572,0.940779353552381,9.720457632999999
1.7177165615443274e+18,-0.66802333832,0.94707305146,9.6600343551
1.7177165617443274e+18,-0.69254983519,0.9118363265899999,9.70561457055
1.7177165619443274e+18,-0.6752083969,0.9290205917350001,9.70710397345
1.7177165621443274e+18,-0.6741081848150001,0.8776174850449999,9.72723710645
1.7177165623443274e+18,-0.673030426015,0.8747509460500001,9.71937844845
1.7177165625443274e+18,-0.6953789520350001,0.840075553895,9.72084539795
1.7177165627443274e+18,-0.6885823713047619,0.8346072823714286,9.726730303095238
1.7177165629443274e+18,-0.6839127960199999,0.815451759335,9.72702005775
1.7177165631443274e+18,-0.685162696835,0.8178018722499999,9.72722213745
1.7177165633443274e+18,-0.6959477691649999,0.796748153685,9.7618675919
1.7177165635443274e+18,-0.6892342300300001,0.8428747329650002,9.73668246475
1.7177165637443274e+18,-0.674609642025,0.8807908859399998,9.72035142515
1.7177165639443274e+18,-0.691329872125,0.900864143385,9.71045700085
1.7177165641443274e+18,-0.696568977355,0.9455986175549999,9.68254005445
1.7177165643443274e+18,-0.7025390624904763,0.9308214895952382,9.678694479809522
1.7177165645443274e+18,-0.69091074372,0.9282347259350001,9.722057876599997
1.7177165647443274e+18,-0.6882238311750001,0.9022188263,9.70586155705
1.7177165649443274e+18,-0.6985523529,0.8646020507850001,9.728756446750001
1.7177165651443274e+18,-0.67624873353,0.84104104613,9.730949386599999
1.7177165653443274e+18,-0.6868017883300002,0.8199499054,9.7255231705
1.7177165655443274e+18,-0.681787216185,0.818984413135,9.72147409055
1.7177165657443274e+18,-0.6930944170238094,0.7796216256190476,9.759483620857143
1.7177165659443274e+18,-0.6702087936350001,0.830241004935,9.73887540435
1.7177165661443274e+18,-0.68558182525,0.837508392335,9.728142723050002
1.7177165663443274e+18,-0.69727251434,0.8882004776000001,9.71642209625
1.7177165665443274e+18,-0.6942937088050002,0.9045839080699999,9.715359306449999
1.7177165667443274e+18,-0.6938970336799999,0.9477241973899998,9.68845275875
1.7177165669443274e+18,-0.7089781722999999,0.9459354171700001,9.66854415895
1.7177165671443274e+18,-0.70292326356,0.925338249205,9.711108146650002
1.7177165673443274e+18,-0.6845692879904762,0.8863282993857143,9.716922127857142
1.7177165675443274e+18,-0.6888300704899998,0.849386192315,9.73073982235
1.7177165677443274e+18,-0.68055976869,0.838960372925,9.72693024445
1.7177165679443274e+18,-0.687228401185,0.79581259918,9.737213859649998
1.7177165681443274e+18,-0.6846687240650001,0.7949144668550001,9.733239624100001
1.7177165683443274e+18,-0.7026164016700001,0.77087445832,9.753148224
1.7177165685443274e+18,-0.68385292054,0.81464344025,9.7359040832
1.7177165687443274e+18,-0.6941279820095237,0.8361041695619048,9.72911106652381
1.7177165689443274e+18,-0.683740653995,0.88642666626,9.723816719000002
1.7177165691443274e+18,-0.695438827515,0.9212742004399999,9.7130690689
1.7177165693443274e+18,-0.7035669250550001,0.92603430175,9.673895530650002
1.7177165695443274e+18,-0.69501221466,0.9386006698699999,9.6837151108
1.7177165697443274e+18,-0.707032218935,0.89762338256,9.70091434485
1.7177165699443274e+18,-0.689496185295,0.8740324401850001,9.730328178499999
1.7177165701443274e+18,-0.69528913879,0.8370219039850001,9.72439302065
1.7177165703443274e+18,-0.6878553118000001,0.823316476004762,9.739988446809525
1.7177165705443274e+18,-0.68539471435,0.799367706285,9.7309868088
1.7177165707443274e+18,-0.6976467361400001,0.787040840135,9.756501251250002
1.7177165709443274e+18,-0.6821315002399999,0.7922649764999999,9.74691368865
1.7177165711443274e+18,-0.6424714736949999,0.8491092682049999,9.745005157349999
1.7177165713443274e+18,-0.75485028076,0.9374854888899999,9.709491508500001
1.7177165715443274e+18,-0.669871994025,0.963104713435,9.695360893350001
1.7177165717443274e+18,-0.7411088562,0.919972621404762,9.669235578190476
1.7177165719443274e+18,-0.745741722105,0.9684186630499999,9.673356651350002
1.7177165721443274e+18,-0.704652168275,0.87715345001,9.715404212950002
1.7177165723443274e+18,-0.708776092535,0.8630078659049998,9.726675773650001
1.7177165725443274e+18,-0.7925044784649999,0.81654448701,9.7135405884
1.7177165727443274e+18,-0.5495447158850001,0.76082286072,9.766186111550002
1.7177165729443274e+18,-0.7239844665499999,0.71870793914,9.787801162750002
1.7177165731443274e+18,-0.88009483337,0.888859107955,9.7020145569
1.7177165733443274e+18,-0.7039005170238095,0.8225822884714286,9.747879180904764
1.7177165735443274e+18,-0.760186683665,0.9580676879250001,9.654376121500002
1.7177165737443274e+18,-0.8066725158400001,1.01479222869,9.649735771200001
1.7177165739443274e+18,-0.58308247376,0.8413553924649999,9.732693260200001
1.7177165741443274e+18,-0.58478144074,0.8886794815150001,9.7382691651
1.7177165743443274e+18,-0.8436231765300001,0.8442369003150001,9.689523033099999
1.7177165745443274e+18,-1.20044366456,0.77935432435,9.682150863550001
1.7177165747443274e+18,-0.8396111624619047,0.8504671587333335,9.727229265476192
1.7177165749443274e+18,-1.0562260665549998,0.763734306385,9.739646301300002
1.7177165751443274e+18,-1.14711705778,0.88145700077,9.6720244218
1.7177165753443274e+18,-1.06098616797,0.7176900558399999,9.73304502865
1.7177165755443274e+18,-0.6898030471800001,0.955275993335,9.6841866303
1.7177165757443274e+18,-1.019477485665,0.9725800093849999,9.639788955599998
1.7177165759443274e+18,-1.044887145975,0.9965152359300001,9.655962821900001
1.7177165761443274e+18,-0.8510516575285714,0.9307074410619048,9.69458999642857
1.7177165763443274e+18,-0.957888061505,0.64109433747,9.71225326555
1.7177165765443274e+18,-1.0127489776699998,0.6223832473750001,9.70887778475
1.7177165767443274e+18,-1.08308770753,0.465464561465,9.746434684749998
1.7177165769443274e+18,-1.1158994751199998,0.45753854370499986,9.6981900101
1.7177165771443274e+18,-0.7358996887399999,0.45945455933,9.750798110949999
1.7177165773443274e+18,-0.7019951934850001,0.08946146393400001,9.776170349200001
1.7177165775443274e+18,-0.588613471975,0.310551704415,9.77201648715
1.7177165777443274e+18,-0.6040510123142857,0.20081098284571428,9.775507442
1.7177165779443274e+18,-0.628340858455,0.3617751846250001,9.742490387
1.7177165781443274e+18,-0.7796836395,0.29974417877000004,9.762788177450002
1.7177165783443274e+18,-0.719418960575,0.295657676705,9.757781089800002
1.7177165785443274e+18,-0.6980958023000001,0.29144393921,9.742490386800002
1.7177165787443274e+18,-0.688987243645,0.33804203796,9.732446273799997
1.7177165789443274e+18,-0.543804153455,0.27290499115,9.7646592865
1.7177165791443274e+18,-0.8667761012809524,0.44003494263333337,9.738149414142859
1.7177165793443274e+18,-0.715167800875,0.35297348784000004,9.81431103525
1.7177165795443274e+18,-0.884607948335,0.46128824615499997,9.650214774950001
1.7177165797443274e+18,-0.7981252899100001,0.37974531555,9.739975616449998
1.7177165799443274e+18,-0.740105941775,0.43724823761,9.691715972899999
1.7177165801443274e+18,-0.8163424072349998,0.3211646347065,9.78049635315
1.7177165803443274e+18,-0.7948321380650001,0.18171462250300002,9.78485977935
1.7177165805443274e+18,-0.9360559616049999,0.548833694455,9.776379913300001
1.7177165807443274e+18,-0.9106420244809524,0.4823754664714286,9.718932233571431
1.7177165809443274e+18,-0.73357951355,0.6510636062699999,9.738194320700002
1.7177165811443274e+18,-0.6506968688950001,0.7436610488850001,9.72335268405
1.7177165813443274e+18,-0.66730483245,0.792729011535,9.71360046395
1.7177165815443274e+18,-0.6756499786299999,0.802002227785,9.69280870055
1.7177165817443274e+18,-0.65457380676,0.8316181411700001,9.704042839100001
1.7177165819443274e+18,-0.65017295838,0.797953147885,9.7225518494
1.7177165821443274e+18,-0.6555296761666667,0.8224183436857143,9.73347342347619
1.7177165823443274e+18,-0.628864768975,0.7816520462,9.734197631699999
1.7177165825443274e+18,-0.6231990509099999,0.8023989029,9.731967270000002
1.7177165827443274e+18,-0.6311624908400001,0.7986192626899999,9.73338931285
1.7177165829443274e+18,-0.619703819275,0.781188011165,9.77093872825
1.7177165831443274e+18,-0.764056137085,0.76109230043,9.724879508999999
1.7177165833443274e+18,-0.8520057449399999,0.7043078842250001,9.700906860500002
1.7177165835443274e+18,-0.7736436996449999,0.679534400945,9.7184428939
1.7177165837443274e+18,-0.8312000819571427,0.6776265825619048,9.753624376523808
1.7177165839443274e+18,-0.7573725357050001,0.68192193604,9.747632194550002
1.7177165841443274e+18,-0.96450430297,0.6709198150700002,9.686783729599998
1.7177165843443274e+18,-0.8657920761050001,0.722143295285,9.698017867899999
1.7177165845443274e+18,-0.873501045215,0.7122114486650001,9.711175506550001
1.7177165847443274e+18,-0.6436165924100001,0.64423780059,9.75139686615
1.7177165849443274e+18,-0.5225109329300001,0.80108164215,9.722155174300001
1.7177165851443274e+18,-0.19471651350000002,0.6890029253285714,9.762826668904761
1.7177165853443274e+18,-0.67484914398,0.771338493345,9.742033836
1.7177165855443274e+18,-0.6078484726100001,0.548848663335,9.7533203656
1.7177165857443274e+18,-0.7206015014,0.6713015213,9.723300293049999
1.7177165859443274e+18,-0.559678642275,0.6598054275599999,9.74232572955
1.7177165861443274e+18,-0.44875930023899996,0.6613397369350001,9.72518637095
1.7177165863443274e+18,-0.633841918935,0.8161702651950001,9.7359864121
1.7177165865443274e+18,-0.27735074615,0.6746246109,9.7540762939
1.7177165867443274e+18,-0.5102532087095237,0.6896587044809523,9.739446716095241
1.7177165869443274e+18,-0.390477996825,0.69602261352,9.7742393647
1.7177165871443274e+18,-0.450667831415,0.64981370544,9.755977340599998
1.7177165873443274e+18,-0.6632931747449999,0.68285749054,9.738815528850001
1.7177165875443274e+18,-0.6499933319,0.7223453750500001,9.7099181214
1.7177165877443274e+18,-0.5788387985250001,0.6825955352749999,9.74404714965
1.7177165879443274e+18,-0.575351051325,0.7698790283350001,10.272493240400001
1.7177165881443274e+18,-0.5327136448714285,0.7440170942171905,11.134538465571428
1.7177165883443274e+18,-1.9066750488,0.2689382400345,10.295245926099998
1.7177165885443274e+18,0.17451459499,2.0759954453,10.009677269049998
1.7177165887443274e+18,0.18104102323550003,2.6106012268,6.725020248750001
1.7177165889443274e+18,-0.297139595103,2.72452931205,5.916102401850001
1.7177165891443274e+18,-0.9849068756330501,1.04217029568,9.650080055150001
1.7177165893443274e+18,-1.32087572481,-0.49411498262549997,10.827479142
1.7177165895443274e+18,-0.008771759039500004,-1.31213390345,12.222563050000002
1.7177165897443274e+18,-0.7719233485885714,-0.33340667723909523,12.032620892380953
1.7177165899443274e+18,-0.4634886703527,0.20841160582249998,9.4093057483
1.7177165901443274e+18,-0.493037223813,1.565736534065,9.440530815250002
1.7177165903443274e+18,-0.11485615534794999,2.7703116073,4.351668159399999
1.7177165905443274e+18,-0.6206618270250001,1.7625996551149998,8.5946997297
1.7177165907443274e+18,-1.2459939422609998,-0.5686225433535,10.703499458149999
1.7177165909443274e+18,-0.7461458817200001,-1.023773552065,12.347650427500001
1.7177165911443274e+18,-0.35442725052523816,-0.5542260524438095,12.192552599523808
1.7177165913443274e+18,-0.6240971832290001,0.43505529785999997,9.266263206400001
1.7177165915443274e+18,0.13062586205350002,2.1148770905,9.6176425091
1.7177165917443274e+18,-0.2209929427165,3.19193234245,5.525654342689999
1.7177165919443274e+18,-0.6556141434229998,2.70881199655,6.976347610450001
1.7177165921443274e+18,-0.007581733830999965,1.142005188055,10.4129835896
1.7177165923443274e+18,-0.630077247647,-0.71484597013,11.6123120735
1.7177165925443274e+18,-0.5687273254134999,0.3208502883705,12.401732962999999
1.7177165927443274e+18,-0.3126926095139525,0.5932662964000001,10.053001817952381
1.7177165929443274e+18,-0.937732475315,0.845314659055,9.1128696896
1.7177165931443274e+18,-1.396019462595,2.2999222871,10.217490120199999
1.7177165933443274e+18,-0.49307464601349993,3.51026037605,9.070043747100001
1.7177165935443274e+18,0.636401596082,2.8329713058500006,4.03172348795
1.7177165937443274e+18,-0.5723123702925701,2.33593739315,8.53757102965
1.7177165939443274e+18,-1.95914094555,-0.034188903819499974,11.5010709
1.7177165941443274e+18,-0.7742898559414286,-0.26234730312809523,12.305988136190475
1.7177165943443274e+18,-1.1180026016255,-0.04247417452850001,11.238419586299997
1.7177165945443274e+18,-1.6884812850395001,0.37719312289150003,9.02907394465
1.7177165947443274e+18,0.14868580635999995,0.9826465758699999,10.37028488155
1.7177165949443274e+18,-0.32767609403225,2.3523881835499996,9.360312629849998
1.7177165951443274e+18,-0.30362111663385,2.88712868485,4.3474619064499995
1.7177165953443274e+18,-0.5684129791298499,1.8093100204500001,8.41944417565
1.7177165955443274e+18,-0.6051615600768001,-0.312303062442,11.672561782149998
1.7177165957443274e+18,-0.20103907994685713,-1.050565338042857,11.34890696852381
1.7177165959443274e+18,-0.4539684677205,0.330138473448,9.970369010899999
1.7177165961443274e+18,-1.22533689879,0.46987289427850004,9.8007492374
1.7177165963443274e+18,-0.5464461593600001,0.15210619354,9.7734834365
1.7177165965443274e+18,-0.37476816558500003,0.1359248428367,9.78783858485
1.7177165967443274e+18,-0.68517766573,0.202199523925,9.798406608549998
1.7177165969443274e+18,-0.760882736195,0.1228570175175,9.774074707199999
1.7177165971443274e+18,-0.7014556012857143,0.14439259120476192,9.785365513333334
1.7177165973443274e+18,-0.6624773712049999,0.143828407285,9.7406716691
1.7177165975443274e+18,-0.691344841015,0.18403479766580003,9.740911170950001
1.7177165977443274e+18,-0.654723495485,0.20817958831699998,9.71241792285
1.7177165979443274e+18,-0.7012766876400001,0.1278641052225,9.843133598049999
1.7177165981443274e+18,-0.68381549835,0.0904868316665,9.2507629395
1.7177165983443274e+18,,,
