Timestamps,Gyro_X,Gyro_Y,Gyro_Z
1.7177164497492933e+18,0.05705720944628572,0.06211123819523809,-0.011600489592666666
1.7177164499492933e+18,0.049620849498999996,0.076994359124,-0.08481321215295001
1.7177164501492933e+18,0.03582437597174999,0.0835518748984,0.024181145523
1.7177164503492933e+18,-0.017086782969894996,-0.024165226629325,-0.023693841044295
1.7177164505492933e+18,-0.030261804140324998,-0.021270111878729993,0.00755541629675
1.7177164507492933e+18,-0.53486979455,0.2372028049095,0.02210098793815
1.7177164509492933e+18,-0.8514344960600001,0.33688268438,0.10707973982404999
1.7177164511492933e+18,-0.4651548990238095,0.36177064761904765,0.06458126229952382
1.7177164513492933e+18,-0.0344833233158,-0.044328342574,0.0161443844776
1.7177164515492933e+18,-0.07192767438820001,-0.431612550843,0.1583708564936
1.7177164517492933e+18,0.537163873015,-0.06870853807499999,-0.1081445657635
1.7177164519492933e+18,0.771964657295,-0.13601665314765,0.011731724121499998
1.7177164521492933e+18,-0.40278607531755,0.17392993416,0.11633814648100001
1.7177164523492933e+18,-0.7065856099000001,0.2652265541205,-0.11902539221474999
1.7177164525492933e+18,-0.5044592179095237,0.1962910088695238,0.08472304212602381
1.7177164527492933e+18,-0.15871740933600004,-0.14268855489299997,-0.028471774198400003
1.7177164529492933e+18,0.64755114763,0.1358891219755,-0.03855062984099998
1.7177164531492933e+18,1.02757208034,-0.1444580057263,0.004027474409049993
1.7177164533492933e+18,-0.03250490533449999,-0.18859236557450004,0.13415500931700003
1.7177164535492933e+18,-0.7594691783199999,0.19402002277885,-0.026467146398250003
1.7177164537492933e+18,-0.525390614575,0.1101670550745095,-0.017637648225649998
1.7177164539492933e+18,-0.029792188756499992,0.028265289131500004,-0.0032040257499100027
1.7177164541492933e+18,0.21960968054523805,0.08719848735195239,0.08318794856285713
1.7177164543492933e+18,0.757709085945,-0.03153815448925,-0.04804483209344999
1.7177164545492933e+18,0.5445946246514999,-0.29357832467850004,0.013327496987679998
1.7177164547492933e+18,-0.6945482507399999,0.1597081531733,0.0414769902136
1.7177164549492933e+18,-0.6312957823299998,0.15627381358750497,-0.03964454787749999
1.7177164551492933e+18,-0.2259401784335001,-0.046931692675,-0.018733914918149998
1.7177164553492933e+18,0.0200024258102,-0.06931641586865,-0.05650210878679999
1.7177164555492933e+18,0.6570042059523808,-0.14795382848533334,-0.002209684634285714
1.7177164557492933e+18,0.5959385618449999,0.054446668827,0.07907681513823
1.7177164559492933e+18,0.402009169763,0.049333058296500004,0.023927651684589997
1.7177164561492933e+18,-0.778253179785,0.11818615608829999,-0.05558084600144999
1.7177164563492933e+18,-0.5450780615299999,0.053761626173300006,-0.022906432728850006
1.7177164565492933e+18,-0.09276030831676499,0.13304008301115505,0.08615266205449999
1.7177164567492933e+18,0.23613263667249998,-0.06691093577124999,0.0013923934193449997
1.7177164569492933e+18,0.533710686855,-0.1230918155555,0.05256700708140001
1.7177164571492933e+18,0.5847196039571428,-0.32569322983809523,-0.006156570135000002
1.7177164573492933e+18,0.46516011094700005,0.19170336141049998,0.124960731444
1.7177164575492933e+18,-0.6588043615,0.032361714671190006,-0.125492828426
1.7177164577492933e+18,-0.6147238507899999,0.001190247807500001,-0.099861543346
1.7177164579492933e+18,-0.37416060940000007,-0.04530694605795,0.03931705867695
1.7177164581492933e+18,-0.16206583548159997,0.03616515826,0.04204551911479999
1.7177164583492933e+18,0.0586192255915,0.015015998904500005,0.05188293010665
1.7177164585492933e+18,0.030612039846304763,-0.03342583944065715,-0.1123272315414286
1.7177164587492933e+18,0.023040232249000002,-0.04236444022885,-0.0037589237912
1.7177164589492933e+18,0.009508507140379999,0.083251382267,0.016837309836749997
1.7177164591492933e+18,0.0389958491555,0.1591113835525,0.029227267810599998
1.7177164593492933e+18,0.021100630146,0.052661641313500006,0.025672495713300002
1.7177164595492933e+18,-0.002764760493055,-0.035745383519649995,-0.013473663200250003
1.7177164597492933e+18,-0.00431604301628,-0.0213791701939,-0.01198370340295
1.7177164599492933e+18,-0.00514163962791,0.0025069276225924996,-0.0001706876790999997
1.7177164601492933e+18,-0.005331687495795238,0.017998921374499998,0.036808624508190474
1.7177164603492933e+18,-0.0057281920630594995,0.08666633851899999,-0.0410948124948
1.7177164605492933e+18,0.0525539529053,0.091309054936,0.020860379922500002
1.7177164607492933e+18,0.15725780948499998,0.07824408136934999,-0.014693473348950001
1.7177164609492933e+18,0.106200572102,-0.0808175420395,0.0030179409775450004
1.7177164611492933e+18,0.0796695653345,-0.050403354875499996,0.0190444520673
1.7177164613492933e+18,0.04742923835249999,-0.004910773562950001,0.0227234952155
1.7177164615492933e+18,0.03589714389428572,-0.027025733275238092,-0.0052236778479523805
1.7177164617492933e+18,-0.0129996657702,0.00422278265505,-0.0098234615638
1.7177164619492933e+18,-0.09581482884999999,0.01077341868056,0.008569581690649999
1.7177164621492933e+18,0.01017573589924,0.042921494784500004,0.0009120421720100001
1.7177164623492933e+18,0.00707078709415,0.004313290072325,0.01114332606025
1.7177164625492933e+18,-0.006805992493869999,-0.0225072659555,0.003854139126155
1.7177164627492933e+18,0.029413998174,-0.0135126288396,0.01079920972685
1.7177164629492933e+18,0.020623769168892376,-0.01765138327728572,0.020681962314142856
1.7177164631492933e+18,0.01847359251595,-0.031821054964499995,0.0034341918416
1.7177164633492933e+18,0.0046895547071,-0.029758154368249995,0.0034762275052149993
1.7177164635492933e+18,-0.005357194930000001,0.0036323034439500004,0.0032931969904875
1.7177164637492933e+18,0.0070791472152,0.00518602863917,0.0042327639304500005
1.7177164639492933e+18,-0.00957240438431,-0.0031637551840699996,-0.0047275258582
1.7177164641492933e+18,0.00296598816035,0.0046218128990225,-0.0069260152640249996
1.7177164643492933e+18,0.0009985057636999995,0.008005333785400002,0.0011258487999100003
1.7177164645492933e+18,-0.004725247604925714,-0.0037377130995952385,-0.0020988024772857143
1.7177164647492933e+18,0.0009332560119000001,0.0049767822032,-0.000330719386665
1.7177164649492933e+18,-0.0191593899095,0.01725132758755,-0.00170238265965
1.7177164651492933e+18,-0.031014925509045,0.00411766872245,-0.0035573920588199996
1.7177164653492933e+18,-0.013055302336685,-0.0043831815013999995,0.0022606418350199996
1.7177164655492933e+18,0.027824897924500002,-0.0087775136807,0.005873370042955001
1.7177164657492933e+18,0.029912068881500005,-0.015396380878479998,0.0020126726012599998
1.7177164659492933e+18,0.025667651867142857,-0.019168534493809525,0.0013995181458823815
1.7177164661492933e+18,0.023530613723500002,-0.0049385066259,-0.0025090895593900004
1.7177164663492933e+18,-0.008378641505055,-0.009644637268194999,0.027564240085335
1.7177164665492933e+18,-0.0158637418866,-0.027072376898050005,-0.018588654045
1.7177164667492933e+18,-0.0032675806903000003,0.037125621736,0.013328096666549999
1.7177164669492933e+18,-0.02275527883405,-0.02074087710353,0.0064109059755
1.7177164671492933e+18,-0.010316120321799998,-0.0243102793463,-0.014627088141424998
1.7177164673492933e+18,-0.0016979662702100006,0.022418262856250003,0.007364551408549999
1.7177164675492933e+18,-0.008639011194238095,-0.0011457410155966666,-0.0037727934372142856
1.7177164677492933e+18,-0.018738640985400002,-0.007603544980265301,-0.0020101393107005002
1.7177164679492933e+18,-0.009356473886799999,0.0021183144883130003,-0.0022048217128620004
1.7177164681492933e+18,0.0002192976358499999,-0.001275141886435,-0.0005951347411925
1.7177164683492933e+18,0.0100917466972,-0.00043296278479749983,0.00084696788104
1.7177164685492933e+18,0.01694648223955,-0.00591109918875,-0.0014520235127
1.7177164687492933e+18,0.019230683055000003,0.0022385521558750004,0.000282405631115
1.7177164689492933e+18,0.011146874788619048,0.0010275842420485713,0.0005539417532047621
1.7177164691492933e+18,-0.00411500637691,0.0015391596709355003,-0.000822001509335
1.7177164693492933e+18,-0.007760611176450001,0.005366694624810001,-0.00258427758246
1.7177164695492933e+18,-0.00774849383155,-0.0008926778215304998,0.0009700411814240001
1.7177164697492933e+18,-0.0077420616865,0.00940748747671,-0.027865396812999998
1.7177164699492933e+18,-0.011176928289999999,0.07694902382800001,-0.044722513434300004
1.7177164701492933e+18,-0.029017556597999993,0.013390899159449998,-0.0008323371876000001
1.7177164703492933e+18,0.0436750272754,0.055213854756299995,0.01391855177895
1.7177164705492933e+18,0.0040628285578095235,0.08378433835238093,-0.005660442801314286
1.7177164707492933e+18,0.043704028072744996,-0.030987098882250003,-0.06100414786655001
1.7177164709492933e+18,0.017102774606,-0.0670228943225,0.055116939638
1.7177164711492933e+18,0.010384058338155002,-0.063101823532,-0.02570599989238
1.7177164713492933e+18,-0.0473086499612,-0.005260818090200004,0.033250612628650006
1.7177164715492933e+18,-0.0329690520655,0.012622988271149998,-0.0044749864616237004
1.7177164717492933e+18,-0.022232187398999997,0.0020038379589999997,-0.001081344193800001
1.7177164719492933e+18,-0.01777117990928571,-0.01660022634095238,-0.011742007751814285
1.7177164721492933e+18,-0.01194714121585,0.001702668366315,-0.0017731348636499996
1.7177164723492933e+18,-0.0058453798294,0.0005103242702169999,0.00038041091759000005
1.7177164725492933e+18,-0.006594534300019998,-0.005597623333085002,-0.0027376590296950003
1.7177164727492933e+18,-0.0022184420962599997,-0.00509187021527,0.0009209316630710001
1.7177164729492933e+18,0.00019114611487349998,-0.00207522397971,0.0010201719240485
1.7177164731492933e+18,0.01417696024275,-0.007405067200390002,0.0015862066415957502
1.7177164733492933e+18,0.017018591798999998,0.0017414001284500001,0.00584672278476
1.7177164735492933e+18,0.01772056941209524,-0.00048805657956476196,0.004334290655865714
1.7177164737492933e+18,0.0194492191545,0.002428946993225,0.00378883593945
1.7177164739492933e+18,0.007225213054505001,0.005756098159750001,0.0030114400899315004
1.7177164741492933e+18,-0.0080447382704,-0.0005700784034450001,-0.0020155664533799997
1.7177164743492933e+18,-0.007322952099135001,0.0017283102032004997,-0.0027585014932200004
1.7177164745492933e+18,-0.009253358049500001,-0.0014309017568925001,-0.00273413505061
1.7177164747492933e+18,-0.0141492007773,-0.0029117344179895007,-0.0030431004533200004
1.7177164749492933e+18,-0.0099594552636,-0.004650889785025238,-0.004028935562052381
1.7177164751492933e+18,-0.0045665591257150005,0.0003201600047950001,-0.00023266983913499995
1.7177164753492933e+18,-0.0023945310851049987,0.00893767952265,-0.0252161322848145
1.7177164755492933e+18,-0.0007170080903999995,0.0442325594815,-0.11633452456900002
1.7177164757492933e+18,0.026258965911750004,-0.03987173714969,-0.0487524229434
1.7177164759492933e+18,0.010973309260255002,-0.0461688030041,-0.09831931516100001
1.7177164761492933e+18,0.02245194636025,-0.02405947856945,-0.21778945251499998
1.7177164763492933e+18,0.026029886544380956,0.0006129483885714311,-0.16947016173333335
1.7177164765492933e+18,-0.00063154283593,0.05246005609945,0.10577404674605002
1.7177164767492933e+18,-0.016281091992649998,-0.03868160716955,0.07592694997175001
1.7177164769492933e+18,0.06654351846449501,0.002930396783445499,-0.0033959215451999994
1.7177164771492933e+18,-0.07605253315348001,-0.005494634061550001,0.0055812701297
1.7177164773492933e+18,0.0018606037228500048,0.0099055464035145,-0.005171113974250001
1.7177164775492933e+18,-0.05706095453470002,0.0052160639085,-0.00138501491138
1.7177164777492933e+18,-0.0119203933984,0.00013803945625000006,-0.0010029906637915001
1.7177164779492933e+18,0.010064691690942856,-0.015350665453285712,0.0036892010832000003
1.7177164781492933e+18,0.027646995615999998,-0.0041353796379049994,0.002673944632735
1.7177164783492933e+18,0.021840372355199998,0.0037744440835154993,0.003206365543365
1.7177164785492933e+18,0.017834105714799996,0.0033321111460700007,0.0008535114233460001
1.7177164787492933e+18,0.002586024059585,0.004538479901485,0.00265880002405
1.7177164789492933e+18,-0.008233959259829999,-0.002080106793585,-0.0021728712948549996
1.7177164791492933e+18,-0.0063104899945999994,0.00022471377149999982,-0.0018625018071199997
1.7177164793492933e+18,-0.004601391980098095,0.001981387413766666,5.226518541904754e-05
1.7177164795492933e+18,-0.001867844635415,-6.3288604999999635e-06,2.120499253600006e-05
1.7177164797492933e+18,-0.0009985793089949998,-0.00056427586233,-0.0003627216850600001
1.7177164799492933e+18,0.0031991631956350005,0.0007239171886100002,0.0010524453362515001
1.7177164801492933e+18,-0.0031312656705400005,-0.0011895168105900001,-0.00130121073445
1.7177164803492933e+18,-0.012229836475699998,-0.0060929592582,-0.0011161089525299997
1.7177164805492933e+18,-0.00673422296525,-0.0029075080179250005,-0.0013640952995950001
1.7177164807492933e+18,-0.00836328789535,-0.0015994724701555,-0.001191045355545
1.7177164809492933e+18,-0.0110590081338,-0.0035536375917619052,-0.0005707968959857144
1.7177164811492933e+18,-0.004057511733950001,0.0014990329042999999,0.00011472960486999997
1.7177164813492933e+18,-0.003915772368775,0.00122194123697,-0.0016634337720685
1.7177164815492933e+18,-0.006881693984015,-0.0020236269103849997,-0.0011911377777350002
1.7177164817492933e+18,-0.0020305481157450005,-0.0008453851855799999,-0.0023888836384199997
1.7177164819492933e+18,0.015531899640499997,-0.0017272674362100002,0.0003596731229499999
1.7177164821492933e+18,0.01583381297645,0.00267163839326,0.000989484920948
1.7177164823492933e+18,0.021967441197619047,-0.001618308552894286,0.0006955636532285714
1.7177164825492933e+18,0.017285301723000003,0.013759573083000002,0.0043626509373350005
1.7177164827492933e+18,0.010948631539500002,0.01122179382895,0.0033239576151599995
1.7177164829492933e+18,-0.0050270380798830006,-0.00130270221264,-0.00152812990115
1.7177164831492933e+18,-0.010807151440599998,-0.00409298185275,-0.000523898238345
1.7177164833492933e+18,-0.013200912949900001,0.0023688604821600003,0.00280465445254
1.7177164835492933e+18,-0.016707571317050002,-0.005659755296256499,-0.00267982863602
1.7177164837492933e+18,-0.009192178642440001,-0.01405685031785,-0.006331884814050001
1.7177164839492933e+18,-0.006369843679904763,0.0013407713932095233,0.00037292592295190487
1.7177164841492933e+18,-0.003647135622905001,-0.00640768080485,-0.0044859528076
1.7177164843492933e+18,-0.00717664097876,-0.003248102543965,-0.00132653652697666
1.7177164845492933e+18,0.0032104592884999996,-0.00025342283775499987,0.000488963827985
1.7177164847492933e+18,0.016188755165999998,0.001055206073155,0.00288027920758
1.7177164849492933e+18,0.018081264431000003,0.0022164642635074997,0.0011583989951099998
1.7177164851492933e+18,0.015454903721300001,0.00286889213596,0.0020728819075154998
1.7177164853492933e+18,0.018737228853333336,0.009840289530047619,0.004836696144728571
1.7177164855492933e+18,0.0034351077577953497,0.006715844304419999,0.001805292954672
1.7177164857492933e+18,-0.01337936111355,-0.004639369155744999,-0.0019364627192150006
1.7177164859492933e+18,-0.0173293395435,-0.007264216581950001,-0.0039400487789350005
1.7177164861492933e+18,-0.0128996358266,0.00046180256171450014,-0.00063678346337
1.7177164863492933e+18,-0.014281434473050001,-0.0071241425115,-0.0017438318812550001
1.7177164865492933e+18,-0.013579197216550001,-0.004483182105325,-0.0018498000223255
1.7177164867492933e+18,-0.004825209544699999,-0.0008282377273428573,0.0004178718054142857
1.7177164869492933e+18,-0.0038413971838499998,-0.0007121745032054999,-0.00025379867293000004
1.7177164871492933e+18,0.014850092818825,-0.004264156276085,-0.00104042827149
1.7177164873492933e+18,0.024094443954999996,-0.00041043945819700005,0.0019069788045315
1.7177164875492933e+18,0.023988345544500002,0.007564262731500002,0.0030339700868415
1.7177164877492933e+18,0.015462760766850001,0.00662682012224,0.00172368200726
1.7177164879492933e+18,0.008604980120690001,0.006989656621455,0.0018752806876585
1.7177164881492933e+18,0.0007182722735835,0.007911619416345,0.007396852666975
1.7177164883492933e+18,-0.011572405872761905,-0.00472419293745238,-0.0021501984113871425
1.7177164885492933e+18,-0.01717607353919,-0.0064946272523000005,0.0005913195547899998
1.7177164887492933e+18,-0.014072313531950001,-0.0007095905486834999,-0.0035335675812549995
1.7177164889492933e+18,-0.010998722654150002,-0.002962416003075,-0.0024926843470869996
1.7177164891492933e+18,-0.010798421897700002,-0.0027501926523,-0.00268621841674
1.7177164893492933e+18,-0.01069877790829,-0.001996257726659,-0.0012210778659050001
1.7177164895492933e+18,-0.00590900080315,0.0007217277423749998,-9.414983221000006e-05
1.7177164897492933e+18,0.011713260707261905,-0.0033707556957809524,-0.0016459374510095239
1.7177164899492933e+18,0.01612730436105,0.004358009184547,0.0008296554792100001
1.7177164901492933e+18,0.019286400639499997,0.0051965094171544995,-0.0015204792493400002
1.7177164903492933e+18,0.019746490102499997,0.0087318896893,0.00010462481295900007
1.7177164905492933e+18,0.01169084153959,0.007597492809700001,0.002753087889825
1.7177164907492933e+18,-0.008930359122835001,1.3524945947000072e-05,-0.0017275332357149999
1.7177164909492933e+18,-0.017459433712500003,-0.004299313900976,-0.0020114336976649995
1.7177164911492933e+18,-0.019675414170999998,-0.008040996582800001,-0.0033605679986705
1.7177164913492933e+18,-0.020552223481476194,-0.004388618316514286,-0.0002646176476619046
1.7177164915492933e+18,-0.01190032123235,-0.0029779901146250003,-0.0012498463038
1.7177164917492933e+18,-0.0061210484827,0.0034041545235955007,0.0021854610647985
1.7177164919492933e+18,0.011416041967718001,-0.004368222324179999,-0.0023950891103749995
1.7177164921492933e+18,0.0186104094725175,0.0033547623895399995,0.0026046268291150003
1.7177164923492933e+18,0.022196804918500002,0.0042437333383,0.00103694670832
1.7177164925492933e+18,0.020466240310999997,0.007176336238649999,0.00279877952996
1.7177164927492933e+18,0.012471310346638094,0.008911216100047619,0.004186614959752382
1.7177164929492933e+18,-0.0013803101585849998,0.004379044286900001,0.0002115137525249999
1.7177164931492933e+18,-0.0114852304103,0.0017320761922700004,-0.0011401754105950003
1.7177164933492933e+18,-0.021098850107999997,-0.005502428964244999,-0.006751720386175
1.7177164935492933e+18,-0.028929828875950005,-0.00831307247303,-0.0019269102833999996
1.7177164937492933e+18,-0.012917638814825003,-0.008719278010065001,-0.004842581308735
1.7177164939492933e+18,-0.008501313812500001,0.0038812478770899996,0.0031556289176285003
1.7177164941492933e+18,-0.005619176878829999,-0.00282356850804,0.0009327717240945
1.7177164943492933e+18,0.012746490798761905,-0.0043911917044952365,-8.95669660809525e-05
1.7177164945492933e+18,0.025921488739,0.003271055570925,0.002948363113615
1.7177164947492933e+18,0.023505982848499998,0.0020995977567495002,0.0027674149022749997
1.7177164949492933e+18,0.016751628019585,0.004747125902401906,0.00239299871031
1.7177164951492933e+18,0.014067818399050006,0.00638715421105,0.0016737784841600004
1.7177164953492933e+18,0.0008640715763049998,0.005832730023849999,0.00023298044683999993
1.7177164955492933e+18,-0.014070565066500002,-0.00581139744015,-0.00225206550683
1.7177164957492933e+18,-0.016616800887333333,-0.006997851594047619,-0.0024645773450142857
1.7177164959492933e+18,-0.01606688862705,-0.003095245594150001,-0.0022770354641855
1.7177164961492933e+18,-0.012593981949000002,-0.004706869716355,-0.00012310801535500001
1.7177164963492933e+18,-0.0110295491526,-0.00454243066545,-0.0018929864163750004
1.7177164965492933e+18,-0.010219062783655,-0.0019607243011300003,0.0003734811790621001
1.7177164967492933e+18,0.014829427487549998,-0.0028858759089,-0.00016715473035000002
1.7177164969492933e+18,0.0197723887855,0.0013260890380700002,0.002253278065465
1.7177164971492933e+18,0.01642716347615,0.0019985336691500004,0.001981091976475
1.7177164973492933e+18,0.016925929779523813,0.003316303604101905,0.0007969670085571428
1.7177164975492933e+18,0.014087856584999997,0.013130315182700003,0.003918257332445001
1.7177164977492933e+18,-0.006206290525895,0.00019128830177500008,-0.0014306644676900001
1.7177164979492933e+18,-0.01832694278605,-0.0093589528925,-0.00483841195265
1.7177164981492933e+18,-0.018242693925999996,-0.0066547482852775,-0.004746217734660001
1.7177164983492933e+18,-0.016062617534499998,-0.0018780556856574995,-0.0014335875981499999
1.7177164985492933e+18,-0.01057351739125,-0.0032749557171550003,-0.0017519185902214996
1.7177164987492933e+18,-0.009798284641719049,-0.001337185269290476,-0.0005606471761557143
1.7177164989492933e+18,0.0066904561010200005,-0.0013818320003700002,0.000296421267594
1.7177164991492933e+18,0.018899236293500002,0.00017884494738999997,0.001196011737968
1.7177164993492933e+18,0.01807965482565,0.0039331961422905005,0.003252318059145
1.7177164995492933e+18,0.020438004237999997,0.0020427744834799998,0.00137084645683
1.7177164997492933e+18,0.018906465963900002,0.0115188219116,0.004577196086736001
1.7177164999492933e+18,-0.00128109907967,0.0053364983290649995,0.00022967628903850006
1.7177165001492933e+18,-0.015395112469428571,-0.006023987528638096,-0.0029588921127761906
1.7177165003492933e+18,-0.016597172990500002,-0.0064349871247595,-0.003079848911135
1.7177165005492933e+18,-0.01366060208595,-0.0020590581116699995,-0.0011758604436006
1.7177165007492933e+18,-0.016471523047,-0.007573274336505,-0.0037997093866649996
1.7177165009492933e+18,-0.0133750349570585,-0.005203711998485,-0.00109005912668
1.7177165011492933e+18,-0.0007609057054145,0.001106313458815,-0.0008698442252699999
1.7177165013492933e+18,0.0186550044925,-0.00021601777992500006,-0.00016890430127449997
1.7177165015492933e+18,0.021903157233499997,0.0043998619074,0.0029989558680150004
1.7177165017492933e+18,0.015779256576,0.005541267172666667,0.0015230963804428574
1.7177165019492933e+18,0.0169538641355,0.008251917304,0.0015606329543350003
1.7177165021492933e+18,0.00413478403339,0.00778690803585,0.00222015551991
1.7177165023492933e+18,-0.014701475423550001,-0.0038042005848899995,-0.00138014018893
1.7177165025492933e+18,-0.01302545019395,-0.0077578852884299995,-0.004135794227393999
1.7177165027492933e+18,-0.01159795126915,-0.00014233243415999995,-0.0010415893281259998
1.7177165029492933e+18,-0.014384641916999999,-0.004598089342485,-0.001348313898834
1.7177165031492933e+18,-0.016406076843857142,-0.0025425256960761905,0.0002731037037952381
1.7177165033492933e+18,-0.007480337959385,-0.0001708823256349999,-0.0012870197533385002
1.7177165035492933e+18,0.007348039501750001,-0.0013063740043904998,0.0009161156484604998
1.7177165037492933e+18,0.019680694863500003,0.000954436918325,0.0007698404020149999
1.7177165039492933e+18,0.0171976264802,0.0036813297829500005,0.00256165298655
1.7177165041492933e+18,0.017093043028,0.00631407646005,0.0010709295049395
1.7177165043492933e+18,0.011498704226890002,0.012586437491400001,0.0042748701524528
1.7177165045492933e+18,-0.006910696969495001,0.0005464592363990002,-0.0013765803304939
1.7177165047492933e+18,-0.016178768638047618,-0.00963286547687619,-0.004132473065176666
1.7177165049492933e+18,-0.016361598810999998,-0.0029071344181349997,-0.0027573032886700002
1.7177165051492933e+18,-0.013668623287400001,-0.00499662397195585,-0.0012152943353495
1.7177165053492933e+18,-0.00930182024625,-0.0037116579246750008,-0.00210128794429325
1.7177165055492933e+18,-0.006830551080149999,-0.0018534831352449998,-0.001469998049975
1.7177165057492933e+18,-0.00218817598643,0.0012598223227350003,0.00032682812305
1.7177165059492933e+18,0.0012443003245195,-0.0022952455212734003,-0.0017195262946200006
1.7177165061492933e+18,0.0082828738627,-0.001281022980938095,-0.0016170651374666665
1.7177165063492933e+18,0.0176721717942,0.004859972756832501,0.0010582687682790001
1.7177165065492933e+18,0.019809720991999995,0.0073999968591,0.0035565732860939996
1.7177165067492933e+18,0.014960560948000001,0.002345473773345,0.0015494699473100003
1.7177165069492933e+18,0.007603330555264999,0.0052627550901895,0.002269513031805
1.7177165071492933e+18,-0.0034851692765350004,0.0005763691732799999,-6.388628359000102e-06
1.7177165073492933e+18,-0.0032631127221800006,0.00201386850093,-1.9190192674999874e-05
1.7177165075492933e+18,-0.0053566616961,-0.00022834602279950007,0.00020294568388499996
1.7177165077492933e+18,-0.012050091378666668,-0.005017681624090477,-0.0015453985846761904
1.7177165079492933e+18,-0.011450833402350001,-0.004950833146049999,-0.0027640495565650004
1.7177165081492933e+18,-0.01066841310815,-0.00020794638546499998,-0.00132323479046
1.7177165083492933e+18,0.0070918795595600005,0.00046506862850000065,-0.0022544778187499996
1.7177165085492933e+18,0.02385519179605,0.0203236555205,0.00346107907645
1.7177165087492933e+18,0.0353433719845,-0.00865182905623,-0.012613230850950003
1.7177165089492933e+18,0.020252721571499998,-0.0025272138187999995,-0.0036125225714815
1.7177165091492933e+18,0.006756978868566668,0.05298065926380953,0.009732263041014285
1.7177165093492933e+18,0.0191523373708,0.019901931006849997,-0.012099454552044999
1.7177165095492933e+18,-0.030314377509999997,-0.010481461533629501,0.05735822906764999
1.7177165097492933e+18,-0.009126210241769999,0.012194635125594998,0.0060929122507
1.7177165099492933e+18,-0.08445151132100001,0.0379646458186,0.012683603459184997
1.7177165101492933e+18,-0.1746498435795,0.048808537423750006,0.010537578723700002
1.7177165103492933e+18,-0.03552794602567,0.040009145904005,0.00207607489998
1.7177165105492933e+18,-0.015890685724949997,0.010286388546894999,0.001710770814245
1.7177165107492933e+18,0.011117636137190476,-0.009745824827857144,-0.006579530093190474
1.7177165109492933e+18,0.074699783326,-0.050568157141000006,0.026261798104649996
1.7177165111492933e+18,0.0607456078755,0.028791852284649994,-0.04445045823269999
1.7177165113492933e+18,-0.029913103789220002,-0.11223372136750003,0.028742895694350002
1.7177165115492933e+18,-0.039905550173189995,-0.0605102661125,-0.03642879370585
1.7177165117492933e+18,-0.013744018780511,0.04763858817752999,0.039047806590875
1.7177165119492933e+18,-0.020264510425091004,0.0624877926791,-0.0712367050214
1.7177165121492933e+18,0.06163278470857144,0.06643807240714286,0.03283625122714286
1.7177165123492933e+18,-0.04641562833935001,-0.136770101077,0.0410014629365
1.7177165125492933e+18,-0.028353065153575004,-0.12992190294149997,-0.04340085347565
1.7177165127492933e+18,0.028147273744,0.043454206257530006,-0.020951951762
1.7177165129492933e+18,-0.02055404668185,-0.0548194975131,-0.0011163159152000005
1.7177165131492933e+18,0.014595808403899999,-0.028330803477050005,0.01245746782527
1.7177165133492933e+18,0.009300487680800001,0.007818647473515,0.037089236803305
1.7177165135492933e+18,-0.017245447552031428,0.01682547352366667,-0.04175031282761904
1.7177165137492933e+18,0.05648452525310001,0.03527436876907,0.00431030384525
1.7177165139492933e+18,-0.01124297078,-0.0018364189664999999,-0.028590952593424996
1.7177165141492933e+18,-0.03293776307275,-0.07138353117055,0.016279370139300003
1.7177165143492933e+18,0.014523230167464998,0.009256992874349997,0.043893048958
1.7177165145492933e+18,-0.019614502903149998,0.009672348735,0.012906681630105
1.7177165147492933e+18,-0.024747798499000002,-0.03405816746,-0.023523470828900002
1.7177165149492933e+18,-0.0155961067885,0.027792535825360003,-0.046802912416499996
1.7177165151492933e+18,0.01549563983304762,0.05242487222709523,-0.0018122771066476197
1.7177165153492933e+18,0.014592586730864998,0.1374855067575,0.046631023101499997
1.7177165155492933e+18,0.07210123920200001,-0.041600769759999996,-0.00477048870252
1.7177165157492933e+18,0.08259370055035,-0.08769192118,0.0119296720721
1.7177165159492933e+18,-0.0441685282558,-0.0452478997872,-0.024907432869199997
1.7177165161492933e+18,-0.034164197159719994,-0.035158297569650006,-0.08467600550149999
1.7177165163492933e+18,-0.02094549889465,-0.022527020995690004,-0.00960903209695
1.7177165165492933e+18,-0.054791487041904764,-0.023567750363571435,0.047146644875461906
1.7177165167492933e+18,-0.007925890269099999,0.011931202874685002,-0.009392844978115
1.7177165169492933e+18,0.04152501595525,0.0024157124565500018,-0.02808466036949999
1.7177165171492933e+18,0.021194370927649996,-0.03290273279837999,0.031151026435349994
1.7177165173492933e+18,0.07361820992050001,0.024590157708,0.1074410343595
1.7177165175492933e+18,0.048897411865,-0.026430989242999997,-0.04734393779205
1.7177165177492933e+18,0.091920795425,0.05979358259154999,0.0346524966399
1.7177165179492933e+18,-0.1433185830675,-0.0388780298638,-0.0150062191065
1.7177165181492933e+18,0.027036312230952382,0.0765469127887619,-0.04959136824161904
1.7177165183492933e+18,0.027084311925799985,-0.061750039701225,-0.02344103269515
1.7177165185492933e+18,0.32911145612,0.17876373361349998,-0.043965687188475
1.7177165187492933e+18,0.06855074660550001,-0.059571542309799996,-0.134781144986
1.7177165189492933e+18,0.54031258885965,-0.11364835524450001,-0.019964315469499998
1.7177165191492933e+18,-0.4207607813589999,0.156106960965,0.16772567814065004
1.7177165193492933e+18,-0.6930025696400001,0.31291803196499995,-0.07654904142405
1.7177165195492933e+18,-0.3324530195714286,0.06640739874609522,-0.030137399563809522
1.7177165197492933e+18,0.154903085577,-0.2499595426065,0.0011038536692500023
1.7177165199492933e+18,0.512810285385,-0.26562470742115,0.07334763682054
1.7177165201492933e+18,0.67888941467,-0.15993050216375,0.030782311174349992
1.7177165203492933e+18,0.35033439696,0.006555854624600001,-0.08557466720050001
1.7177165205492933e+18,-0.748092537659425,0.10029028262499998,0.038669814737949997
1.7177165207492933e+18,-1.0422225802749998,0.294006744765,-0.008808488488999996
1.7177165209492933e+18,-0.25349490712805,0.14810489905459998,-0.002625529247149999
1.7177165211492933e+18,0.19771041119190477,-0.1485951785274286,-0.0049927909197142835
1.7177165213492933e+18,0.236249473318,-0.03141357028159999,0.00021254693889999828
1.7177165215492933e+18,0.591544143855,0.12700941508909996,0.04904790947815
1.7177165217492933e+18,0.52891151011,-0.1576373547916,-0.014094191720050003
1.7177165219492933e+18,-0.24894990622449997,0.046067609638,0.07596107225185
1.7177165221492933e+18,-0.7328458175100001,0.0553514046025,-0.14701359337699998
1.7177165223492933e+18,-0.561573602255,-0.22854839013800005,-0.0531758645085
1.7177165225492933e+18,0.16162352520904763,-0.06103741608285712,-0.0017510073253333318
1.7177165227492933e+18,0.26014010234999996,0.14431716133895,0.07511090315917998
1.7177165229492933e+18,0.657462182645,0.039707874298599996,0.07040055619371
1.7177165231492933e+18,0.548839902875,-0.07974775848495,0.1324670467525
1.7177165233492933e+18,0.31332339495,0.023212296612999988,-0.007328027199150001
1.7177165235492933e+18,-0.42872371375599994,-0.008665654907299994,-0.0009696658704999986
1.7177165237492933e+18,-0.5808517992549999,-0.03071154790765,-0.1079278042525
1.7177165239492933e+18,-0.420997111495,0.11621854523500001,0.025168310339000004
1.7177165241492933e+18,-0.25816026471952386,0.1160787187042857,-0.06712359243095237
1.7177165243492933e+18,0.3058088201095,0.1703947770475,0.123052152158
1.7177165245492933e+18,0.35463540256500004,0.28375453986449994,0.02161690346359999
1.7177165247492933e+18,0.3555294454,-0.169893825802,0.052102669873500006
1.7177165249492933e+18,0.32366463243000004,-0.08235068129294999,0.029120827206150002
1.7177165251492933e+18,-0.20603279133985,-0.06113275590339999,-0.03243398081765
1.7177165253492933e+18,-0.5878585755850001,0.09391841291749996,-0.15805073231645
1.7177165255492933e+18,-0.3904401773523809,-0.025162559717952376,-0.05402311896000002
1.7177165257492933e+18,-0.08910264312369999,-0.255247670593,0.16433975751750002
1.7177165259492933e+18,0.047529460807000004,-0.0823049733322,0.07854088079095001
1.7177165261492933e+18,0.1720262937205,-0.429988627885,-0.09719090685434999
1.7177165263492933e+18,-0.02614968554115,-0.0193091938113,-0.030130323023350003
1.7177165265492933e+18,0.025571835039949996,0.03265570027255,0.11834362577500002
1.7177165267492933e+18,-0.036344210338000005,0.07126141304460001,-0.0880722923344
1.7177165269492933e+18,0.1269416630457619,0.14612356378238095,0.09595635143666667
1.7177165271492933e+18,0.18017830514000002,0.108898938444,0.05372944832334999
1.7177165273492933e+18,0.0553244827546,-0.01117815203045,-0.033394356594885
1.7177165275492933e+18,0.024702477714090003,-0.061924372798500014,0.0058092884956400005
1.7177165277492933e+18,0.009922815918250002,-0.034063742216500006,-0.004951117409
1.7177165279492933e+18,-0.005059640839875,-0.00811465320868,-0.005025956977495
1.7177165281492933e+18,-0.03161821555215,-0.057801723293,-0.009386648004999996
1.7177165283492933e+18,-0.05986838294750001,-0.0123099455033345,-0.03296912989274999
1.7177165285492933e+18,-0.02141528496655714,0.006445100619428571,-0.05557404123700001
1.7177165287492933e+18,-0.0036810479378000015,0.0694807186725,-0.031547232158500006
1.7177165289492933e+18,0.03615832084285,0.031311244610000004,0.04112774054505
1.7177165291492933e+18,0.03377594482125,-0.009045013691484999,-0.0289797610606
1.7177165293492933e+18,0.0444131119987,-0.023544351511675003,-0.0027600287683499994
1.7177165295492933e+18,0.015807661746685,0.008325478643555002,-0.0042255034311999996
1.7177165297492933e+18,0.0028886806104000008,0.02592557284585,0.00170085337593
1.7177165299492933e+18,-0.00621879967852381,0.0058328025706428565,-0.004320448818919048
1.7177165301492933e+18,-0.0430063417185,-0.0059514367956450005,-0.009371390914735
1.7177165303492933e+18,-0.016400258493415,-0.00288874609386,-0.004420806036595
1.7177165305492933e+18,-0.006799585439210001,0.00764236588715,0.00194272095145
1.7177165307492933e+18,-0.00494399834415,-0.00100079493136,0.0012204945437100003
1.7177165309492933e+18,-0.00551287058024,-0.0011773393256950002,-0.00224305229486
1.7177165311492933e+18,0.0010167201341799998,0.0027898000552999997,0.00815349320181
1.7177165313492933e+18,0.0188003947485,-0.005355297681,-0.0018621703843849998
1.7177165315492933e+18,0.023887290486190475,-0.0007327952134352859,0.000867349256361905
1.7177165317492933e+18,0.025448043737500002,0.004681363317385,0.0020623250632049997
1.7177165319492933e+18,0.0137979849349,0.0034624866155049997,0.005708993854549999
1.7177165321492933e+18,0.00539537550109,0.0028552383999249998,0.00018151703983200018
1.7177165323492933e+18,-0.001273673869455,0.004031931573919999,1.7313368184999987e-05
1.7177165325492933e+18,-0.01304945469023,-0.00478883318134,-0.0009215524944350001
1.7177165327492933e+18,-0.011848627055450001,3.0278926759999997e-05,-0.00254410225313
1.7177165329492933e+18,-0.017805629896714286,0.0006114147557333333,0.0015224565838333336
1.7177165331492933e+18,-0.015568774846200001,-0.012974780751499998,-0.006132003501700001
1.7177165333492933e+18,-0.0084374307536,0.001559429115155,0.00037624564717999995
1.7177165335492933e+18,-0.012775890109799997,0.00252360032163,0.00013496683681499998
1.7177165337492933e+18,0.01431232753645,-0.004884173453140001,-0.001894518523446
1.7177165339492933e+18,0.0237237773835,0.003202251519495,0.001876394928035
1.7177165341492933e+18,0.0159810408016,-0.0016589489419549998,0.0008348647911700001
1.7177165343492933e+18,0.0174221800175,0.001698352431365,0.0012681934458345
1.7177165345492933e+18,0.01809297111695238,0.007306635003047619,0.003285488778957143
1.7177165347492933e+18,0.0043414320444,0.0031065037939500004,-0.0002565804519849998
1.7177165349492933e+18,-6.127051885499997e-05,-5.905511786499992e-05,-0.00048563829635750005
1.7177165351492933e+18,-0.0036842000437349995,-0.0003223908715590002,-0.000622759025985
1.7177165353492933e+18,-0.009959809008229998,-0.0016897859982978997,-0.0048345849847895
1.7177165355492933e+18,-0.01003830026625,-0.0019082588375949998,-0.0025737231595689995
1.7177165357492933e+18,-0.00573388669589,0.001059065281825,-0.001959714072315
1.7177165359492933e+18,-0.011228615529238093,-0.0011706897165714286,-0.001440767930704762
1.7177165361492933e+18,-0.00811131861975,-0.004262722155699999,-0.0040695512201994995
1.7177165363492933e+18,-0.00147586370872,0.00131685707025,-2.8395920626205e-05
1.7177165365492933e+18,-0.007955835276825,0.00185451416734,-0.0023408220848500005
1.7177165367492933e+18,-0.0034771732348950002,-0.004746853152829999,-0.0033204463193649996
1.7177165369492933e+18,-6.963345809200009e-05,0.00080307807068,0.0006537558044900001
1.7177165371492933e+18,-0.0013246003275904999,0.00016311870420499994,-0.002423872705575
1.7177165373492933e+18,0.0010264920188000001,-0.0010080127159214996,0.00028391083469000007
1.7177165375492933e+18,0.012960678210714286,0.0013653145815066667,0.0012281782137809523
1.7177165377492933e+18,0.017973469197,0.002344427793155,0.002573318313865
1.7177165379492933e+18,0.014140241593150003,0.0032109382446555,0.0034479002875999996
1.7177165381492933e+18,0.016789689567000003,0.003311314509415,0.001435602083805
1.7177165383492933e+18,0.018636284674499997,0.01108769052645,0.005253098962985
1.7177165385492933e+18,-0.000879451218835,0.0028452627825750003,0.0018961151712150002
1.7177165387492933e+18,-0.0044695225599675,-0.0026449177414349994,-0.002178435656285
1.7177165389492933e+18,-0.0067280418391428565,0.0006161708650666667,-0.0004730268736309523
1.7177165391492933e+18,-0.0118041972868,-0.004624922509545,-0.0031991873169550005
1.7177165393492933e+18,-0.0153231926273,-0.006813606130875001,-0.0051859451106725
1.7177165395492933e+18,-0.012203828314849998,-0.005018963268805,-0.00245256186466
1.7177165397492933e+18,-0.013205047394250002,-0.0020986094895799998,-0.0016330372834725004
1.7177165399492933e+18,-0.013072796087259999,-0.00261914344774,0.00118859848015
1.7177165401492933e+18,-0.01004364052755,0.0003461113549,-0.0005202291766485
1.7177165403492933e+18,0.003920973472133334,1.1332621328571488e-05,0.0016555614059285716
1.7177165405492933e+18,0.01303334189615,-0.0013541830124199998,0.001474650524035
1.7177165407492933e+18,0.014318766236049999,-0.00019264959269999995,-0.0003013937384275
1.7177165409492933e+18,0.019419706752999998,0.00516870896095,0.00307241569976
1.7177165411492933e+18,0.014558000467199997,0.00224186956179,0.0013071783585615001
1.7177165413492933e+18,0.005382211588105,0.0048931884347045,0.0013287101522650004
1.7177165415492933e+18,-0.004577626433450001,0.0009605868020899999,-0.001024029211861
1.7177165417492933e+18,-0.011833118670899999,-0.0020443063054950005,-0.0013421935379100002
1.7177165419492933e+18,-0.014546148721619044,-0.004792767532714286,-0.0024486332910857145
1.7177165421492933e+18,-0.013401206955199998,-0.0033562797005,-0.005003461974849999
1.7177165423492933e+18,-0.006027496431,-0.0013524775858980002,-0.00049651807636965
1.7177165425492933e+18,-0.01129110758195,0.001978763588771,-0.0018323129334200002
1.7177165427492933e+18,-0.007970466357385,-0.00045703038339499997,-0.00110641132343
1.7177165429492933e+18,0.009404473599585,-0.002176185394635,0.0007868897985100001
1.7177165431492933e+18,0.017171017965500003,-0.0015360851888290001,-0.00027903983134150006
1.7177165433492933e+18,0.017934921018904766,0.0012459172976761906,-6.674000599047641e-05
1.7177165435492933e+18,0.01553508751185,0.002969711565426,0.0019162057200465
1.7177165437492933e+18,0.0159662355669,0.0050182062899500005,0.00326253395753
1.7177165439492933e+18,-0.003736231907055,0.004094663670262,0.0019335414050239998
1.7177165441492933e+18,-0.010231516557050001,-0.00566484470605,-0.003371635870955501
1.7177165443492933e+18,-0.009774421365800002,-0.00034775073292500007,-0.0021055339486050003
1.7177165445492933e+18,-0.013548905821650001,-0.0026057073730605,-0.0033579404233450003
1.7177165447492933e+18,-0.012746192968799998,-0.004144858918400001,-0.0015843491536049997
1.7177165449492933e+18,-0.007906370585138097,0.0012619162943238095,-0.0006482963826857141
1.7177165451492933e+18,-0.004970570412040002,0.001288272620829,5.487489987050004e-05
1.7177165453492933e+18,-0.0024999878428,-0.000863565760595,4.2649556435000016e-05
1.7177165455492933e+18,0.013589048642449999,-0.0026533726253292,-0.00028736620450999997
1.7177165457492933e+18,0.020480804284499998,0.0019491223734574997,0.002010751818319
1.7177165459492933e+18,0.015402327570499998,0.0014339790330150002,0.0016519215365050001
1.7177165461492933e+18,0.01144595508795,0.003895145317249999,0.0011999090260349998
1.7177165463492933e+18,0.009207123185523811,0.00508333387835238,0.002342040717066666
1.7177165465492933e+18,-0.0017259613436186004,0.00199661550543,-0.000448804575575
1.7177165467492933e+18,-0.010426532547700002,-0.005271139472900001,-0.00225135733489
1.7177165469492933e+18,-0.012608432310884248,-0.0027942606483,-0.004171313089205
1.7177165471492933e+18,-0.011063804523999998,-0.0009967451798600004,-0.0025103685795900004
1.7177165473492933e+18,-0.0107928902849,-0.001231297222005,-0.00046568068220500006
1.7177165475492933e+18,-0.0124554361443,-0.0017412159708200003,-0.002374983462199
1.7177165477492933e+18,-0.009086191284790001,0.0014270935032249998,-0.004002201824900001
1.7177165479492933e+18,0.011238821790680953,-0.0013721598578595238,0.0017671975905857143
1.7177165481492933e+18,0.018107736716,-0.0009572409791499998,0.0010503753321
1.7177165483492933e+18,0.019426773953500003,0.00227231571903,0.0037212507794750008
1.7177165485492933e+18,0.019307370576,0.003267673123645,0.001435431657585
1.7177165487492933e+18,0.037990695889500006,-0.02746737306005,0.0021639587882949997
1.7177165489492933e+18,0.028874227033,-0.03971586052805,0.018029588426099998
1.7177165491492933e+18,0.0030505336411000006,-0.044936769549099996,0.006932765873645
1.7177165493492933e+18,-0.026282444285142856,-0.0009367866669900002,-0.011540658750042858
1.7177165495492933e+18,-0.0211845247418,0.0023552999953849996,-0.00916869448255
1.7177165497492933e+18,-0.0175986150744,0.011751023691129998,0.0055335883513300006
1.7177165499492933e+18,-0.0008346423279499996,-0.029838523698349995,0.007750869345309999
1.7177165501492933e+18,0.0074259311893,-0.018468712002500002,0.0010395269840000002
1.7177165503492933e+18,0.0044048145986899994,0.009858559991650001,0.0039512535793975
1.7177165505492933e+18,-0.03719561509750001,0.011734494159654999,-0.00608400134933
1.7177165507492933e+18,-0.00434671619433,0.0460401532705,0.0027436947102550003
1.7177165509492933e+18,0.024626578381476187,0.026722910203776193,-0.004642013160957142
1.7177165511492933e+18,0.028294727672800002,0.000766171363579,-0.00296630597436
1.7177165513492933e+18,0.030916128120499996,0.00605324471865,-0.0006620574043600001
1.7177165515492933e+18,0.030079016183499997,-0.02140778652285,0.010030418541
1.7177165517492933e+18,0.020515933306624996,-0.01194149360515,0.0006086347275499997
1.7177165519492933e+18,-0.034329931373350005,0.014425363473994998,0.0363972236389
1.7177165521492933e+18,-0.008695417479500001,-0.0004883902614000001,0.020253804059085
1.7177165523492933e+18,-0.014687008064161905,0.007145049450714286,0.012564655859428573
1.7177165525492933e+18,0.0098422000942295,0.01898226762355,0.022344339872499997
1.7177165527492933e+18,0.026907161903099996,-0.035362632002900005,0.00201157281335
1.7177165529492933e+18,0.005210076535124999,-0.024534456571349998,0.00669361109665
1.7177165531492933e+18,-0.0005271286938999997,-0.01100584266291865,-0.0087088750205
1.7177165533492933e+18,-0.028847382986,0.02491917149143,-0.0072695912098
1.7177165535492933e+18,-0.013769761822505,0.008342481113850001,-0.00144872115911
1.7177165537492933e+18,-0.011723716405484998,0.000993044988125,-0.011591307457490001
1.7177165539492933e+18,-0.002172315038904762,0.00968338621233333,-0.022184592305761905
1.7177165541492933e+18,-0.0005743773481949999,0.0075512980583,-0.0067261716295800005
1.7177165543492933e+18,-0.0018490367335600004,0.0033622215502499995,-0.004419781756834999
1.7177165545492933e+18,-0.020043938134989996,0.0018257143791050004,-0.0070887090285195005
1.7177165547492933e+18,-0.031379754188499996,0.005320353339958001,-0.01696856506225
1.7177165549492933e+18,-0.026254916505799995,0.009258915133555,0.002528608020195
1.7177165551492933e+18,0.007617171789591,-0.005634556058434999,-0.0015061897808149997
1.7177165553492933e+18,0.020419064110952383,-0.0022168508620033335,-0.0008639719094252383
1.7177165555492933e+18,0.0234659682965,0.00226320524241,0.0015817092265299998
1.7177165557492933e+18,0.012978964799679998,0.0033645742926180005,0.0019194513443130002
1.7177165559492933e+18,0.0128547426317,0.0008156315307200001,-0.00141222756353
1.7177165561492933e+18,0.012552748580100002,0.00822497978775,0.0015391799854605
1.7177165563492933e+18,-0.00848151933696,0.0012710634153450004,-0.0011229967814515003
1.7177165565492933e+18,-0.018521450203700003,-0.0047112823114255,-0.0037109363125975
1.7177165567492933e+18,-0.01798698261714286,-0.0015438380317652376,-0.004155437218014286
1.7177165569492933e+18,-0.0208675293715,-0.0016237723407785,-0.002001783659155
1.7177165571492933e+18,-0.01722255805525,0.0005985392139500001,-0.0005017879593955
1.7177165573492933e+18,-0.010755084687700001,-0.0010650808806199998,-0.0025204010890400004
1.7177165575492933e+18,-0.004290567571350001,0.0054030764500500005,0.00042271278800650006
1.7177165577492933e+18,-0.005213269323835001,0.00217537316497,-0.000847332179605
1.7177165579492933e+18,0.012168726836700002,-0.0022321026539499998,0.00041313306441
1.7177165581492933e+18,0.0250961109065,-0.0015476514468450002,0.002452774590235
1.7177165583492933e+18,0.021184763827142856,-0.0012239713577,0.00160864047113
1.7177165585492933e+18,0.016555896588,0.0015006628705149998,0.003932666010037499
1.7177165587492933e+18,0.01141329039815,3.89060820350002e-05,0.00117812330128
1.7177165589492933e+18,-0.0005445778922394999,0.0038877916988095005,0.0006323352339650001
1.7177165591492933e+18,-0.013690101680700001,-0.0024553206866039998,-0.0023905125679
1.7177165593492933e+18,-0.01157259137918,-0.00373418389357,-0.0029262764262800002
1.7177165595492933e+18,-0.009495835448449999,0.0020643536700045003,-0.0023081726976495
1.7177165597492933e+18,-0.009773805959380953,-0.002462801767416667,-0.0028184938932238096
1.7177165599492933e+18,-0.010869467967835002,-0.00040130041301499996,0.0005250017627200002
1.7177165601492933e+18,-0.00554168871935,-0.004071853671116001,-0.0032111471518699993
1.7177165603492933e+18,-0.004052471162955,0.00341952739985,-0.000724744499855
1.7177165605492933e+18,0.006387373758800001,0.00039279580836499987,-0.0011198724270450001
1.7177165607492933e+18,0.008229534554305,-0.00012699514635999994,0.0002982761474500001
1.7177165609492933e+18,0.018770555966000003,0.0021250891149570002,0.002684239146827
1.7177165611492933e+18,0.01547985808105,0.0027336316881800002,0.003302092046914999
1.7177165613492933e+18,0.008909203103922382,0.004450923563480953,0.0032703501086333332
1.7177165615492933e+18,-0.0029808119930499997,0.00112637545679,0.00026971226331250003
1.7177165617492933e+18,-0.004521096326455,-0.0012290393119714998,-0.0008358842460649999
1.7177165619492933e+18,-0.011416244273999999,-0.0028188552707600002,-0.0028752115612775196
1.7177165621492933e+18,-0.01373320219011,7.234753587999998e-05,-0.0031721554695900004
1.7177165623492933e+18,-0.010577922220950001,0.00294122986956,-0.0036126175254499993
1.7177165625492933e+18,-0.009242102434200001,0.00055114066931,-0.0014247027693
1.7177165627492933e+18,-0.007430874991890476,0.0025647619874285717,-0.0004945851064495241
1.7177165629492933e+18,-0.0045444579498405005,-0.0019409180270449997,-0.00429293774074
1.7177165631492933e+18,-0.004750981112,0.0016503681894909999,-0.0018481047940500002
1.7177165633492933e+18,0.013078567175150001,-0.0027726822647350007,0.00084818351312
1.7177165635492933e+18,0.01658240421785,-0.0009969741340500001,0.0017922475351900002
1.7177165637492933e+18,0.0188740600815,-9.810242336500012e-05,0.00255656223745
1.7177165639492933e+18,0.018791530187400002,0.005917965981589999,0.00252870150138
1.7177165641492933e+18,0.0062199232113359995,0.00286867135428,0.0006550498771844999
1.7177165643492933e+18,-0.009828158091952383,-0.002724753105047619,-0.0011549808718747617
1.7177165645492933e+18,-0.009534556627800003,-0.0015784733462470002,-0.0010306406882299999
1.7177165647492933e+18,-0.012778005190650001,-0.0028421559255060007,-0.0026476292812504998
1.7177165649492933e+18,-0.0159670817664,-0.0005245179927649999,-0.0009447503369960002
1.7177165651492933e+18,-0.010093556134550003,-0.0035468893940850004,-0.00250664001797
1.7177165653492933e+18,-0.00628024400755,0.00072001744414,-0.0016634011176058002
1.7177165655492933e+18,-0.0104105612736,0.0023808216327555,-0.0021071140886450004
1.7177165657492933e+18,0.004003751928571429,-0.0009675375183428572,0.0007497386873647619
1.7177165659492933e+18,0.015754043217249998,-0.0025505118187755,0.0006494586530799999
1.7177165661492933e+18,0.018097403784,0.00341381072065,0.005846349732588
1.7177165663492933e+18,0.015523912554367003,0.001739526999875,0.00223614828429
1.7177165665492933e+18,0.011614234016755,0.0014315110398725002,0.0006961715990114997
1.7177165667492933e+18,0.00841999652345,0.0060579759534500005,0.00095642855146
1.7177165669492933e+18,-0.004891685483545001,-0.0023992121103961,-0.001590068975935
1.7177165671492933e+18,-0.01502475217025,-0.00347803881177,-0.00236241938536
1.7177165673492933e+18,-0.013977505620571429,-0.006702566663428571,-0.005105791607838095
1.7177165675492933e+18,-0.013448002748149997,-0.0021103443345450003,-0.0020717149134999997
1.7177165677492933e+18,-0.015157696930450002,5.355422629500001e-05,-0.0025890150864000005
1.7177165679492933e+18,-0.010685471829695,0.0015182418691450004,0.00105032144924
1.7177165681492933e+18,-0.004876214763440001,0.00272177557925275,-0.0016199129052200001
1.7177165683492933e+18,0.010186813020770001,-0.0020673625228199996,0.0008629504533274998
1.7177165685492933e+18,0.0161933232088,2.520899272350019e-05,-2.6520807269999996e-05
1.7177165687492933e+18,0.017062684120619048,-0.0009977819087770286,0.0004619209351142858
1.7177165689492933e+18,0.0196871427355,0.00280733613754,0.00297405520692
1.7177165691492933e+18,0.01434472536245,0.0053866557311250006,0.00310528851124
1.7177165693492933e+18,0.0007932194395035002,0.0020024174591149997,0.00025456678103699974
1.7177165695492933e+18,-0.0083090759456,-0.001191920414445,-0.00083715964573
1.7177165697492933e+18,-0.012923725996649999,-0.0037493302603450003,-0.001849466358347
1.7177165699492933e+18,-0.016115839849049997,-0.0021554250155750012,-0.00327435245266
1.7177165701492933e+18,-0.0179346017776,-0.0021170654101635004,-0.002895662898665
1.7177165703492933e+18,-0.009428649497904762,0.00017043801815714278,-0.0012096833393914284
1.7177165705492933e+18,-0.0078089738265,0.001062480657035,-0.00047621649573800003
1.7177165707492933e+18,0.0006471804811049997,-0.0004488383653650001,0.0002076952368935001
1.7177165709492933e+18,0.020059369318,-0.00427764089523,0.0012150020338185
1.7177165711492933e+18,0.029401797242000004,0.0042224498934625,-0.012436726235405
1.7177165713492933e+18,0.033889631741,0.00990041783045,0.0025531509078400003
1.7177165715492933e+18,0.0058629561034,0.004756850748675,-0.01785596465998
1.7177165717492933e+18,-0.0023579469694904763,0.007084706587919047,0.003968492454857144
1.7177165719492933e+18,-0.016716618905199997,-0.004581731010506999,0.00134720418138295
1.7177165721492933e+18,-0.017992859799650002,-0.004150046826938999,0.005318761604099999
1.7177165723492933e+18,-0.029113310854549997,-0.0017265053590999999,-0.0026723517570999993
1.7177165725492933e+18,-0.027441311255499996,-0.0212224754854,0.004963022867199999
1.7177165727492933e+18,-0.01292275422545,-0.0045556515336,-0.0023773887481000006
1.7177165729492933e+18,0.014024087376710001,0.051858569682,0.007893427904800002
1.7177165731492933e+18,0.035014292830500005,0.012776574980699998,-0.003332540799955
1.7177165733492933e+18,0.03865119087666667,-0.035729163526999994,0.024485006661228575
1.7177165735492933e+18,0.030845520436249996,0.010857107990299998,0.0013738274113199995
1.7177165737492933e+18,-0.017456023359754998,-0.026219229656845,-0.046326177742285
1.7177165739492933e+18,-0.056788660007900005,0.03174696122910001,-0.01577701850395
1.7177165741492933e+18,-0.0160715373696,0.018319553171150003,0.014397472979750001
1.7177165743492933e+18,0.016581087675699997,0.09300601074374999,0.1076092552495
1.7177165745492933e+18,-0.010778596741000002,0.001070726303299999,-0.011582763957499999
1.7177165747492933e+18,-0.011391357757142853,-0.03950237026071428,-0.06673217405142856
1.7177165749492933e+18,-0.006738959135749999,0.12512244246800003,0.013818802684999998
1.7177165751492933e+18,0.038724849468000005,-0.06069625908155,-0.01867993381035
1.7177165753492933e+18,-0.0014110044722699994,-0.02058142436491,-0.03511637309619999
1.7177165755492933e+18,0.049164104276,-0.036596825404899995,0.019663729775955
1.7177165757492933e+18,0.0110771701789,0.0319459389425,0.010118948552555
1.7177165759492933e+18,-0.0003575792332899999,-0.0291279170662,0.0030547875675999993
1.7177165761492933e+18,-0.07000821434590476,0.0031894370030952396,-0.008857250812666667
1.7177165763492933e+18,-0.126757251004,0.05762981302219998,0.013580458412849999
1.7177165765492933e+18,-0.034674982355,0.0027537749614149998,-0.006977532373475
1.7177165767492933e+18,-0.047408238053,0.009797205298885,-0.0056592324872265
1.7177165769492933e+18,-0.03839314458799999,-0.08297921055549999,0.06428537994749998
1.7177165771492933e+18,-0.0499589822705,-0.06242513499532,-0.0317965698895
1.7177165773492933e+18,0.00987456908905,-0.080145256543,-0.0345412244083
1.7177165775492933e+18,0.002791490679550001,-0.018115834193109998,-0.0314979860565
1.7177165777492933e+18,-0.00677361330487143,0.026228125296666665,0.0001944214153
1.7177165779492933e+18,0.003224326903165,0.030474949162500004,-0.01035903554965
1.7177165781492933e+18,0.008183163236274,0.014984945045015002,-0.0225499862348
1.7177165783492933e+18,-0.0012649209238350001,-0.010289351130205,0.019891875016544998
1.7177165785492933e+18,0.001125072280475,-0.0130196415122835,0.0217597720684
1.7177165787492933e+18,0.015377850411149998,-0.00951042614128,0.01548367196307
1.7177165789492933e+18,0.007147766638305001,0.023864354600099995,0.0061830328313
1.7177165791492933e+18,0.012554735377047618,0.03847120032580952,0.011404022973761904
1.7177165793492933e+18,0.03425112874255,0.004490919166564999,-0.018763220658999998
1.7177165795492933e+18,-0.0027972282027,-0.00712367538475,0.007530670264000001
1.7177165797492933e+18,0.00036642310983000024,-0.010488062631810001,-0.0037783420292000006
1.7177165799492933e+18,-0.05236765583999999,0.01356311434616,0.003967368172206
1.7177165801492933e+18,-0.035486228289185004,0.00625175056055,-0.018405737808455
1.7177165803492933e+18,0.06696336781549998,0.03333455729395,0.015620621934445
1.7177165805492933e+18,0.0554573210874,0.01241252990515,0.019380621437525003
1.7177165807492933e+18,0.038470503563333334,-0.04250632904974762,0.008395910917095236
1.7177165809492933e+18,0.07309812474950002,-0.0569500986475,-0.01751854091345
1.7177165811492933e+18,0.0344231289805,-0.017316267627789997,0.002962499368175
1.7177165813492933e+18,0.0147084294589,0.0017502311384499994,0.0032202724484700004
1.7177165815492933e+18,0.0031878616890249995,-0.00477704392985,-0.00022909601684500003
1.7177165817492933e+18,-0.0013107490404350001,-0.00423469146474,-0.0024170053424495
1.7177165819492933e+18,-0.0006157715280200001,-0.00590859835506,0.002114486065575
1.7177165821492933e+18,-0.006415185060757142,-0.0010790383177290478,0.006126260285095238
1.7177165823492933e+18,-0.0003840345540159999,-0.0065236162278,-0.008987651846600001
1.7177165825492933e+18,0.00176990758332,-0.0012362804846099999,0.0015950885600000003
1.7177165827492933e+18,0.001920480697246685,-0.000713253626507,-0.001994688774238
1.7177165829492933e+18,-0.011691746785075001,0.0236456584183,-0.0032857571663999995
1.7177165831492933e+18,-0.031014141789450007,0.07396997960850951,-0.00336764798335
1.7177165833492933e+18,-0.0130429066949,-0.0029368538641250004,0.015212832670521998
1.7177165835492933e+18,-0.0081301538452,0.0015942085768400002,-0.0107518035919
1.7177165837492933e+18,-0.0012334898985176428,0.007983786331152383,-0.0007990588811428569
1.7177165839492933e+18,0.0017970207090789998,0.012082851050175,-0.009618161770550002
1.7177165841492933e+18,0.001989583601683,0.027959252289599994,0.00796130394998
1.7177165843492933e+18,0.00593833550825,-0.027667896497010003,-0.0173819228316
1.7177165845492933e+18,0.012207494466435001,-0.1051483631085,-0.0195248576802
1.7177165847492933e+18,0.01113232235628,-0.06708754310250001,-0.033813970059003495
1.7177165849492933e+18,0.01166057121663,-0.0258048223091,0.010088337654815
1.7177165851492933e+18,-0.009717155076447619,0.007351418979238095,0.03845313903961428
1.7177165853492933e+18,-0.0443623187956,0.0351440777069575,5.723106400000004e-05
1.7177165855492933e+18,0.00586234061115,0.03630247487688001,-0.02034932426589
1.7177165857492933e+18,-0.0318114628554,-0.0227649333414,-0.004770104168700001
1.7177165859492933e+18,0.06249926744235,-0.025409783188950003,-0.031149122399274996
1.7177165861492933e+18,0.0070010577671,-0.0182970268662,0.027385197997969495
1.7177165863492933e+18,-0.007390467108739999,-0.031110184918299998,-0.026428239652349993
1.7177165865492933e+18,-0.006828511206229501,-0.009871795669200002,-0.02061659980215
1.7177165867492933e+18,-0.0024496662163714282,0.022271240196571434,0.019007956752809523
1.7177165869492933e+18,-0.012024335813969998,-0.00036516733153999973,0.05577418910420501
1.7177165871492933e+18,0.008875288097955,0.04170016842,-0.003992012666625
1.7177165873492933e+18,0.00476464233636,0.038286059861999996,0.010730277514049999
1.7177165875492933e+18,-0.0048119570943052,-0.010764195293299998,-0.015025495829800001
1.7177165877492933e+18,-0.0015889082947203998,0.0054394664705,-0.0024287309264499997
1.7177165879492933e+18,-0.0131838216095,-0.0002771322609750021,-0.0074338454981115
1.7177165881492933e+18,0.16956803228666667,0.17376607873842861,0.13471528124128573
1.7177165883492933e+18,0.2546132497495,-0.25130973663449996,0.050694445664099995
1.7177165885492933e+18,0.42120723500999996,-0.20360543122674998,-0.12267167563894998
1.7177165887492933e+18,0.095079699904,0.170660457392,-0.026626714610049996
1.7177165889492933e+18,-0.5259385883850001,0.0574082492885,0.0640000112801
1.7177165891492933e+18,-0.45543271899499993,0.1654150139515,0.026161180114
1.7177165893492933e+18,-0.4671972461049999,-0.1259647679575,-0.0018789483341499977
1.7177165895492933e+18,0.0056968267276000005,-0.0875494500565,-0.005234777928149992
1.7177165897492933e+18,0.21773836513857142,0.12334254803528573,0.09378485390380951
1.7177165899492933e+18,0.414971407885,-0.0731099985555,0.01121811065400001
1.7177165901492933e+18,0.7021197393499999,-0.07133280467165001,0.0001496831458500006
1.7177165903492933e+18,-0.15184778664649998,0.1448715608555,-0.0347959166925
1.7177165905492933e+18,-0.7316060870900001,0.05496731917650001,-0.05564295352621499
1.7177165907492933e+18,-0.49669205322000004,-0.03368448884995,0.019430943948499996
1.7177165909492933e+18,0.056772931799999996,-0.1364548684414,-0.02045020348557
1.7177165911492933e+18,0.3294421860142857,0.005235527351952381,0.05569477902661904
1.7177165913492933e+18,0.4759122901305,-0.045467206160399995,0.052812586164199996
1.7177165915492933e+18,0.819037023185,-0.16115827392899995,-0.0153156003012
1.7177165917492933e+18,0.0943974718475,0.32660864218100005,0.04971395642530001
1.7177165919492933e+18,-0.684217223545,-0.1460726307775,-0.0010439199237000014
1.7177165921492933e+18,-0.699584054955,-0.029517633790999996,-0.10536484001299999
1.7177165923492933e+18,-0.07577187834149998,0.1589172139246,-0.01174604077972
1.7177165925492933e+18,0.14705741629064997,-0.08227363332854999,0.03492241927649999
1.7177165927492933e+18,0.1815326259995238,-0.007275718306190474,0.007972562240904762
1.7177165929492933e+18,0.37627818993999995,0.12531209802500004,0.000574938856888501
1.7177165931492933e+18,0.6669650092899999,0.06540888604650001,0.064446164436
1.7177165933492933e+18,0.3943183235865,-0.183948848128,0.013726237174609999
1.7177165935492933e+18,-0.569483028761,-0.09735620766849999,-0.0777808591501
1.7177165937492933e+18,-0.7435455203150001,0.39377572984,-0.05422213746770001
1.7177165939492933e+18,-0.5988237865220001,-0.12536129811936,-0.0018524779583999993
1.7177165941492933e+18,0.1370815070704762,-0.019723687501904768,0.03564815736252381
1.7177165943492933e+18,-0.03461699150750001,0.121317490522,-0.1303662539485
1.7177165945492933e+18,0.27270863951499996,-0.186743159603,0.10276663457799999
1.7177165947492933e+18,0.59237063229,-0.20959053374700004,-0.1722114646335
1.7177165949492933e+18,0.39916796982,0.0995840738515,0.055955570853
1.7177165951492933e+18,-0.33276096665950006,0.0112569276255,0.0749588811736
1.7177165953492933e+18,-0.578495915225,0.020175594098000002,-0.0284277465231
1.7177165955492933e+18,-0.5466156020799999,-0.14945274740550002,-0.038658039622349996
1.7177165957492933e+18,-0.027937280261714287,0.17764357415571427,0.04254604362619047
1.7177165959492933e+18,0.18609984791555004,0.12294512998652,0.0969711644505
1.7177165961492933e+18,0.026881026423500005,-0.086505505166,0.014572555481500004
1.7177165963492933e+18,-0.04192566241835,-0.05703278508642,-0.08996395982063501
1.7177165965492933e+18,-0.013216696353850001,0.01805317568472,0.03330728011265
1.7177165967492933e+18,-0.010090786102305,0.047241892666499995,0.024484939314629993
1.7177165969492933e+18,-0.010104055207885,-0.007851457025455,-0.027462386851499997
1.7177165971492933e+18,0.011052025954190475,0.0038751355557619053,-0.006598448242980953
1.7177165973492933e+18,0.006174314324760001,-0.00199304143885,-0.0007021051603650002
1.7177165975492933e+18,0.0030992724577314995,-0.0047618548726,0.013144773780319998
1.7177165977492933e+18,-0.004471502103644999,0.0011406823643144999,-0.0046951671249050005
1.7177165979492933e+18,-0.017106199194999987,0.0118531030132,-0.0049942251061
1.7177165981492933e+18,0.008117262506750001,0.007155814441249999,-0.014349080855
1.7177165983492933e+18,,,
