Timestamps,Gyro_X,Gyro_Y,Gyro_Z
1.717676084313025e+18,-1.2886299061465116,-0.9783425628751162,0.08647998446714768
1.717676084513025e+18,-1.4471137996451164,1.3577464106954653,1.0970066029677676
1.717676084713025e+18,1.6018401628780232,-2.78655914585,-0.7112525941653488
1.717676084913025e+18,-0.445088655786753,-0.7455963938918823,0.3897065752525178
1.717676085113025e+18,-0.13079964650279188,-0.17366317627215114,0.003501817907279076
1.717676085313025e+18,0.0775336575856861,-1.0925174556922093,0.09099754089604652
1.717676085513025e+18,-0.7648488770757674,-0.054473510274930234,1.0303655113418606
1.717676085713025e+18,-0.5267001856681175,0.2544970516847059,1.495961130258941
1.717676085913025e+18,0.5734706199563954,1.2635595815988374,0.17372000262406975
1.717676086113025e+18,0.7791615723940699,0.2617555613947674,-1.165991698780814
1.717676086313025e+18,0.619186036279628,-0.38546278154279073,-0.5537347164015116
1.717676086513025e+18,1.3780480630517649,0.06406534059238822,-0.16083350692783527
1.717676086713025e+18,0.37471226504290706,-0.2273056255749302,-0.19154872652339536
1.717676086913025e+18,0.011858590981162797,0.007294861645531392,0.08460477347510464
1.717676087113025e+18,0.6829126880447058,-0.1365139056754118,-0.2937720591074117
1.717676087313025e+18,0.4042894901810698,0.026245876896069775,-0.10784604708302328
1.717676087513025e+18,0.443512689375279,0.2641137794646941,-0.24676806188837205
1.717676087713025e+18,1.7430351618953495,0.4416481342255,-0.2697536238383721
1.717676087913025e+18,1.2378653750588235,-0.05583663330934119,-0.21003327842941172
1.717676088113025e+18,1.2995189248151164,0.14856089521748836,-0.13233746182988723
1.717676088313025e+18,0.5429273817650115,0.29163110791561625,0.3204838123542674
1.717676088513025e+18,0.25172956249197664,0.735630360083721,0.16555145754211625
1.717676088713025e+18,-0.03789337960104706,0.8777515993388237,0.26582319771235297
1.717676088913025e+18,-0.31724125759825583,0.1363009795398256,-0.06386378228709302
1.717676089113025e+18,-0.2904626478444186,-0.35071451629668604,-0.09246077693547675
1.717676089313025e+18,0.1562215646362198,-0.07037020173703487,-0.2901536677640697
1.717676089513025e+18,-0.2585377390157765,-0.25427426084505883,-0.5929951860635293
1.717676089713025e+18,-0.3179089450993372,0.18781250820162787,-0.01176980129056163
1.717676089913025e+18,-0.02689580791703488,0.1458617232854744,0.0023937372690581394
1.717676090113025e+18,-0.10671268714765883,-0.026443258378697643,0.16255111730335292
1.717676090313025e+18,-0.24005920292709307,0.07436213223611628,0.24352905770401162
1.717676090513025e+18,-0.16878691108500002,0.04038100311523256,-0.07801311451697675
1.717676090713025e+18,-0.5566434265790697,-0.16212777426469765,-0.09089809951012792
1.717676090913025e+18,-1.0745812121599998,-0.38844891594000003,-0.18551244718536472
1.717676091113025e+18,-1.1013927529186047,-0.4292177443140698,0.11129814230487328
1.717676091313025e+18,-1.1039640598500002,-0.04717154641261627,0.1443700778316279
1.717676091513025e+18,-1.088664030627907,0.30678907808,0.10609868894295348
1.717676091713025e+18,-0.7049433466129412,0.17777243007070584,-0.12574831116917648
1.717676091913025e+18,-0.1971566067153488,1.0602836785802323,0.20235961300500002
1.717676092113025e+18,-0.30174233866366285,0.5689353062008604,0.25000706447018606
1.717676092313025e+18,0.056654115439388225,-0.9695897277670588,0.03567809679036118
1.717676092513025e+18,0.26488446374604646,-0.21505991860672094,0.058465441977255825
1.717676092713025e+18,0.4110090005215116,0.7405172762717407,0.058763771079465114
1.717676092913025e+18,0.06841330439246512,0.4256520012306629,0.0028625411221046503
1.717676093113025e+18,-0.47669551711171765,0.2009852922039412,0.01078356026764706
1.717676093313025e+18,-1.0048477011976744,-0.15010936487023255,-0.13404220121569763
1.717676093513025e+18,-0.7003387117385697,0.0010157402572441834,-0.44833923371704637
1.717676093713025e+18,-0.19833571961932672,-0.045324746945960455,0.09180729435593023
1.717676093913025e+18,-0.1469291481836706,-0.4606028255235295,0.037417263918188226
1.717676094113025e+18,-0.08210093687216279,-0.2262259571034884,-0.006058926206003489
1.717676094313025e+18,-0.055464390966956975,-0.14603219759290695,-0.1576528343883721
1.717676094513025e+18,0.014884501627022092,0.04471388111336861,-0.06536963491598023
1.717676094713025e+18,-0.05253976080628235,0.004631792393334118,0.01016550858319294
1.717676094913025e+18,-0.07336414995430234,-0.04737043262348837,0.018489314529659306
1.717676095113025e+18,-0.013499401210931395,-0.020961185563204646,-0.008573416297965116
1.717676095313025e+18,0.009222261493631766,-0.0034747425575529416,0.010567960824722354
1.717676095513025e+18,0.012398424136579073,-0.018333046371010464,-0.007578984927390697
1.717676095713025e+18,0.00640342570204535,-0.0035302300985395356,-0.009326342357243025
1.717676095913025e+18,0.005167489955706975,0.002066995997772093,-0.0008736786547453487
1.717676096113025e+18,-0.0002784824202235294,-0.00028387244773294117,-0.0008588040010811763
1.717676096313025e+18,0.0026956185390430236,0.0023795314156825572,0.002635242382663954
1.717676096513025e+18,-0.0045353157860651165,-0.00894277619419535,-0.006172575505855812
1.717676096713025e+18,-0.0002024377143988372,0.0003338447000441861,0.001726048246294186
1.717676096913025e+18,-0.0009396537094576473,-0.0004132320319082352,-0.0015343486385905884
1.717676097113025e+18,-0.010004686467534886,-0.003075633104434884,-0.00425474419848372
1.717676097313025e+18,-0.003001050794361628,0.005646947684495349,-0.0007174109442046516
1.717676097513025e+18,-0.0016940842659604652,0.002336912937432557,0.0025642114694453487
1.717676097713025e+18,-0.0020320236877952942,-0.0010600300478247056,-0.0035322357569211767
1.717676097913025e+18,0.001346033464376744,0.002621036084543023,0.002535799171734883
1.717676098113025e+18,-0.0009269517480662791,0.0018112852096267432,0.0037149102450639527
1.717676098313025e+18,-9.162970791529415e-05,-0.0008588040158611762,-0.0018649342288329417
1.717676098513025e+18,0.1145264917587093,0.11430984795156046,0.05634872457506976
1.717676098713025e+18,0.01194382715902209,0.010107681211052323,-0.02474002321375117
1.717676098913025e+18,0.04889404321227791,0.001811285006031396,0.04640441391423255
1.717676099113025e+18,0.04232394574495176,-0.08155044799223529,-0.06122661724983881
1.717676099313025e+18,0.04402133105651163,-0.06927632788153489,-0.015207691634297672
1.717676099513025e+18,0.06858377777918605,0.05149021847247326,0.031218031529941865
1.717676099713025e+18,0.01322238133948721,0.02391606650232209,0.030479311521511624
1.717676099913025e+18,-0.07999274282011883,0.05118687512411765,0.03547687042152706
1.717676100113025e+18,0.021092592663347676,0.019725250063946508,0.00012075265872907094
1.717676100313025e+18,0.041506841005127915,0.02515200224330001,-0.018276221693895346
1.717676100513025e+18,0.027361352332410587,0.009993029205369415,-0.06602729606138587
1.717676100713025e+18,-0.0438721662597686,0.07950476152660464,0.05971558337581394
1.717676100913025e+18,0.013478092029984887,0.030891289760043027,0.048776842560534876
1.717676101113025e+18,0.039034969782686044,-0.05501334535918606,-0.0009162971568406977
1.717676101313025e+18,0.22969414016102355,-0.1843625837701247,0.11941687831745883
1.717676101513025e+18,1.2018231887627906,-0.40796533659584894,-0.20611003752209298
1.717676101713025e+18,0.395595319395349,0.031090176523906974,0.03208460783697325
1.717676101913025e+18,0.0938849449568477,0.22797331473720928,0.006769233975674418
1.717676102113025e+18,-0.39308609418682355,0.21372002661882356,0.033708955733255296
1.717676102313025e+18,-0.271312750005814,0.3885739248093023,0.02874615965274069
1.717676102513025e+18,-0.4823310158593024,0.1279619646607209,-0.05195902141853488
1.717676102713025e+18,-0.1773674306592674,-0.06552590179034418,-0.03941498448249885
1.717676102913025e+18,0.35249952234823534,-0.08080303678047057,0.038495261097196476
1.717676103113025e+18,0.4667681705127908,-0.06426155387438372,0.003928002801756977
1.717676103313025e+18,0.383676354533372,0.03822166697134883,0.07946214291011278
1.717676103513025e+18,-0.4090260701988942,0.08188822006917647,-0.032997478261896473
1.717676103713025e+18,-0.5304614790639535,0.09091230625246163,-0.06991560513720116
1.717676103913025e+18,-0.24234639664140703,-0.13378648988220931,-0.06569637676327093
1.717676104113025e+18,0.3408732026139534,-0.04538157061592558,0.053550111738124406
1.717676104313025e+18,0.4706623301835296,-0.0801562391224706,0.07198502408482352
1.717676104513025e+18,0.2705953392547082,-0.10325745738069766,0.011812420075996515
1.717676104713025e+18,-0.23748788894523257,0.24997865263500005,-0.026941977869983716
1.717676104913025e+18,-0.4572003237755814,0.2764589282119767,-0.035579322274279075
1.717676105113025e+18,-0.585501313645294,-0.023827319716038818,-0.040888413767571775
1.717676105313025e+18,0.2149924381658825,0.02976900356797325,0.02432804521463721
1.717676105513025e+18,0.5787553125279069,-0.14377341848360461,0.07441895680546512
1.717676105713025e+18,0.47375759897441866,-0.2568544324360465,0.03387458308005814
1.717676105913025e+18,-0.11177208570117647,-0.03288249165672942,-0.052516404598250584
1.717676106113025e+18,-0.437240670588372,0.1517288670976744,-0.05289662814486047
1.717676106313025e+18,-0.6605472644395349,-0.019782074468297675,-0.09523097791022092
1.717676106513025e+18,-0.1719817923024,0.2214241098811765,0.0919207763692
1.717676106713025e+18,0.30687786591832555,-0.09547248258032558,0.061647621019058144
1.717676106913025e+18,0.4062073213500001,-0.33140834906627903,-0.060965725341526736
1.717676107113025e+18,0.5071846884360465,-0.02532247611875814,-0.0008452662895999994
1.717676107313025e+18,-0.033452033491270586,0.0030794773185694123,0.030374353018894115
1.717676107513025e+18,-0.2909030425627907,0.23611344353837208,-0.02231077057015814
1.717676107713025e+18,-0.3908717737080233,0.28427231883244186,-0.017594326202549998
1.717676107913025e+18,-0.6938464980930232,-0.3312804925836046,-0.16347735957513954
1.717676108113025e+18,-0.20705261773458822,-0.16273078339611763,-0.008663499501850587
1.717676108313025e+18,-0.02550360437379186,-0.1983676826582558,-0.09190673771247211
1.717676108513025e+18,-0.060578607637802324,-0.028987664512933716,-0.025123590147953487
1.717676108713025e+18,-0.05596060376910586,-0.10467707006199999,0.035807456727564704
1.717676108913025e+18,-0.011709425575174421,-0.1944467820337209,-0.016614101685631395
1.717676109113025e+18,-0.07992739460009303,0.0981148283045198,-0.005234968990848835
1.717676109313025e+18,-0.14967962835139534,0.03194254568774419,-0.05045316854578954
1.717676109513025e+18,-0.045971167758458824,-0.022188764656768237,-0.05974616863216
1.717676109713025e+18,0.0088184724116,-0.04773979280006859,0.006541935604345348
1.717676109913025e+18,0.06345535494174419,0.04096345546727907,0.03164421591737674
1.717676110113025e+18,0.055130546566627914,0.061121993072325576,0.017565914140313953
1.717676110313025e+18,0.06050615639317647,0.023877626383647054,0.015311146024044703
1.717676110513025e+18,0.027655837235232565,0.00203858371975814,-0.0018396973959593022
1.717676110713025e+18,0.009131007943795351,-0.003942208739908139,-0.0034876117132244177
1.717676110913025e+18,0.0008204056520558139,-0.004609898059522092,0.010406010638923257
1.717676111113025e+18,0.012844330450435294,-0.014599667994921175,-0.012026849268494117
1.717676111313025e+18,0.01292405206722093,0.007578985193232556,0.0033455501022930222
1.717676111513025e+18,0.0006357256782639532,0.006343049412966277,0.007635809894334883
1.717676111713025e+18,-0.007953818697019999,0.00865631332601294,0.002993237455755294
1.717676111913025e+18,-0.01903980269672093,0.006968120344682559,0.0005753493664151162
1.717676112113025e+18,-0.008740338380094186,0.010334979877668607,-0.00016337072250116271
1.717676112313025e+18,-0.010857055878546512,-0.00012075231838023224,-0.00179707884692093
1.717676112513025e+18,-0.004762948558834117,-0.00028387247856000007,-0.001979920576870588
1.717676112713025e+18,0.005650499300059303,0.005746390801845349,0.000518524746556977
1.717676112913025e+18,0.017242724010999997,0.0007316171162848835,-0.0025357991457674424
1.717676113113025e+18,0.024104297703139533,0.004624104310069768,0.0007458232653883719
1.717676113313025e+18,0.020821505586999998,0.0005641516749670587,-0.0006719512409435291
1.717676113513025e+18,0.026661406077209304,0.00514973213277907,-0.0014419249351627905
1.717676113713025e+18,0.013648566089194182,0.0015413681407127902,-0.001910728149583721
1.717676113913025e+18,-0.004389243087215294,-0.010273308199115296,-0.005817588741594116
1.717676114113025e+18,-0.002390185936258139,0.00041908165614302324,0.0020243775200534876
1.717676114313025e+18,-0.0026743090533139532,-0.001299863456426744,-0.0007316171095767441
1.717676114513025e+18,-0.005970137653802326,0.00037646325808488376,0.0017260481383697672
1.717676114713025e+18,-0.03003119052611765,0.0016852681448388228,-0.00019763268810470578
1.717676114913025e+18,-0.019096627246046514,-0.0019107281746569772,-0.003729116308459302
1.717676115113025e+18,-0.003853420199424419,0.008147231618334885,0.001839697460482558
1.717676115313025e+18,-0.01770442386105814,0.008900157859693024,0.003658085690524419
1.717676115513025e+18,-0.002635701838609412,0.00023356592969411776,0.0021739600120564704
1.717676115713025e+18,0.015708459118662796,-0.0038001471243930243,-0.0007032047840104651
1.717676115913025e+18,0.020822675618255817,0.0027488915159639537,0.0010441525664709307
1.717676116113025e+18,0.018066680990603493,0.005291793765753489,0.002464768377440697
1.717676116313025e+18,0.025205358710117642,0.010984786243364705,0.0030507305296141175
1.717676116513025e+18,0.009500367990287207,0.002507386847760464,-0.0012714510954186045
1.717676116713025e+18,-0.010899674318537207,-0.01783583090087093,-0.011755595264588374
1.717676116913025e+18,-0.008859335837905883,-0.008606006666461174,-0.0014912287128811762
1.717676117113025e+18,-0.005359272891527908,-0.0002201954490999999,0.008445560843289537
1.717676117313025e+18,-0.013172659600488374,-0.0006321739534418604,0.0002628139296104654
1.717676117513025e+18,-0.012959567206895352,-0.009383167095267441,-0.007792077457796515
1.717676117713025e+18,-0.0060277979435411745,-0.0054438831428294115,-0.0036903418612047067
1.717676117913025e+18,-0.008882399966395348,0.0029335715598546516,0.003643879504962791
1.717676118113025e+18,-0.008655101492410467,0.007294862110373256,-0.00614416320015465
1.717676118313025e+18,0.003235452476446512,0.006953914210943022,0.004240538061009301
1.717676118513025e+18,-0.005797825383471765,0.0007366311106600003,-0.00272733150900353
1.717676118713025e+18,0.0009056425601011623,-6.392768511976752e-05,-0.0012856572003034882
1.717676118913025e+18,0.004812336021239533,0.0012856572612651165,0.003217694689477907
1.717676119113025e+18,-7.725637103529405e-05,-0.0009737902382282354,-0.003776581546308235
1.717676119313025e+18,-0.00023085002459186042,-0.002166439003059303,0.0013708942317255818
1.717676119513025e+18,0.0010192918783662789,-0.005462267470602326,-0.004993464318818604
1.717676119713025e+18,0.004272501967588373,-0.00012075220401744164,-0.0032034885079953476
1.717676119913025e+18,0.013131796159281176,0.001340309236751765,0.0021739600560835284
1.717676120113025e+18,0.01965777063772093,0.00586004002277558,0.003999033366098837
1.717676120313025e+18,-0.0036971525346104653,0.008900157878026744,0.0027488916052581394
1.717676120513025e+18,0.008278638474965117,0.002663654554754651,-0.0005043185621999998
1.717676120713025e+18,0.010329004941937645,0.0022745729534364703,0.004042487546151764
1.717676120913025e+18,-0.007731701267084886,0.0012430389362697671,0.002322706796272093
1.717676121113025e+18,-0.0047199958463232565,0.00014916467351627888,0.0011009772232523256
1.717676121313025e+18,-0.0021060627805023257,-0.007081769490284883,-0.0036722916905558133
1.717676121513025e+18,-0.011575887515364706,-0.0055157495913199985,0.0024757990046
1.717676121713025e+18,-0.012263465574813955,0.0011435956927302328,0.0013566880591244187
1.717676121913025e+18,-0.005089355909434882,-0.005632741362882558,0.0008452664924116288
1.717676122113025e+18,-0.009146801655637648,-0.00039885867265411766,0.002231453106877647
1.717676122313025e+18,0.001758012063055814,-0.002251675969717443,0.004766166057623256
1.717676122513025e+18,0.00532375766782907,-0.002109614397094186,0.013275654596360466
1.717676122713025e+18,-0.011212209819838375,0.003643879497891861,-0.0011578018423279066
1.717676122913025e+18,-0.009822346279456471,0.008296981138175294,-0.0026842116573000006
1.717676123113025e+18,-0.011368477548873256,0.012494315853709304,-0.004879814965148837
1.717676123313025e+18,-0.01114117897970116,-0.008317705288173258,-0.0001917830201616279
1.717676123513025e+18,0.0007777871563534885,-0.006712409368337209,-0.00789152052142209
1.717676123713025e+18,0.021180837919529412,0.005796028848144705,0.002748891493502353
1.717676123913025e+18,0.018549690308917437,-0.0025215929248581406,-0.003928002560982558
1.717676124113025e+18,0.022072817437325584,-0.0007742355786872091,-0.0038285594278267446
1.717676124313025e+18,0.02360708248141861,0.0040842703377720925,0.00043328789066744217
1.717676124513025e+18,0.00502526125813647,-0.0025835986539882354,-0.0006432046462258824
1.717676124713025e+18,-0.002759546016816279,-0.006186781563456975,-0.001456131148132558
1.717676124913025e+18,-0.004080718733753489,-0.017622738577953486,-0.004638310403163954
1.717676125113025e+18,-0.013113829411517649,-0.0034459959657976475,0.0004635385615235293
1.717676125313025e+18,-0.008058442941059304,0.00354443632953721,0.00029122623208023264
1.717676125513025e+18,-0.011823074599290698,0.002550005343355814,-0.002393737502606976
1.717676125713025e+18,-0.008953430752552328,-0.0006889986580313952,0.0016834297090558127
1.717676125913025e+18,-0.0013708524046388238,0.0017140147118082354,-0.0011175231978376467
1.717676126113025e+18,-0.003555090919368604,0.0023085006213837203,-0.0007742355616779071
1.717676126313025e+18,0.00701429044976744,-0.0013140695370127905,-0.0021380267315046515
1.717676126513025e+18,0.018365010403720936,0.0059594831183372105,0.0018396974047174414
1.717676126713025e+18,0.015014697030058824,0.003036357269802353,-0.002066160234071766
1.717676126913025e+18,0.01363435989911628,0.002407943729688373,0.0009020910027616282
1.717676127113025e+18,0.021348303249,0.005007670577318605,0.0013708942440395352
1.717676127313025e+18,0.008474850623551765,-0.0014481088371235292,-0.005372016673937646
1.717676127513025e+18,-0.004279604902986045,-0.005291793719776743,0.0005895555831011631
1.717676127713025e+18,0.0012750027148093022,-0.0005895555188546509,0.0012998634255209306
1.717676127913025e+18,-0.003910244793922093,-0.00014916466260930214,-0.002138026699263953
1.717676128113025e+18,-0.005222893801835293,-0.0042221535487211755,-0.0008156841051811764
1.717676128313025e+18,-0.0007564778253883718,-0.0002059892783093022,6.392771396976744e-05
1.717676128513025e+18,-0.015516675564581398,-0.01401437429917442,-0.012210192246536047
1.717676128713025e+18,-0.00879716297402442,-0.002791509928859302,0.0040274457790151165
1.717676128913025e+18,-0.005495986338724704,0.00011857963059647062,0.0006791379494494116
1.717676129113025e+18,-0.010984911230906981,0.00014916466586744196,-0.0005753493890267443
1.717676129313025e+18,-0.004947294407825581,0.001740254321374419,0.0015129557798151158
1.717676129513025e+18,-0.0016372595822174414,0.002294294456915116,0.0021238205424395345
1.717676129713025e+18,-0.0035124724585352944,-0.0019511739675223535,-0.0023248794810658826
1.717676129913025e+18,-0.001665671912751162,0.0002770201305034884,-0.0005753493310209301
1.717676130113025e+18,0.011901208760011628,0.002407943716227907,0.00026281394318255824
1.717676130313025e+18,0.013994193581388236,0.0002623125103705883,-0.001045656762675294
1.717676130513025e+18,0.009656635764151161,0.004169507365811628,0.001257244922133721
1.717676130713025e+18,0.014742440127709304,0.008814920894255812,-0.0006463801799883723
1.717676130913025e+18,0.015097594072802324,0.00253579916079186,-6.39276500441863e-05
1.717676131113025e+18,-0.00030722899862000027,-0.003216023351208234,-0.0006575779358894119
1.717676131313025e+18,-0.0036403278115523267,-0.001981758987666279,-0.002308500595655815
1.717676131513025e+18,-0.0014951980392430234,-0.004411011897617442,-0.000887884792482558
1.717676131713025e+18,-0.008655101450119771,-0.00433998117600465,0.0005043186099034885
1.717676131913025e+18,-0.009132428461814118,-0.001462482153916471,-0.0033310096566482343
1.717676132113025e+18,-0.006126405494573256,-0.003999033317334882,0.0019817589783220923
1.717676132313025e+18,-0.012149816357465116,0.00031963856468720923,0.003956414886452326
1.717676132513025e+18,-0.004403616380581177,0.0002623125120435295,-0.002641091777097647
1.717676132713025e+18,-0.003924450991889535,0.0012856572616290701,-0.0017402542218244192
1.717676132913025e+18,-0.007319722636116283,0.0001491647265534884,0.0011009772110232559
1.717676133113025e+18,0.0016159505225802325,0.0012146264696720932,-0.0011009772201395348
1.717676133313025e+18,0.009552847306399999,0.0017715078713529415,-0.0016349615693094118
1.717676133513025e+18,0.010025995871290695,0.0023653253351337213,0.0018254912626267438
1.717676133713025e+18,0.015594809663337213,0.005902658480860464,-0.0005611431991209302
1.717676133913025e+18,0.006886434990555815,-0.00391379645945,-0.0108321949466907
1.717676134113025e+18,0.008144264951171765,0.004401819782081175,0.005120484247765882
1.717676134313025e+18,0.0022126091342720934,-9.23400054674418e-05,0.0019391405754476743
1.717676134513025e+18,-0.011652600801506978,-0.005504885988659302,-0.003530230193595349
1.717676134713025e+18,-0.015815004933232554,-0.01620212271060465,-0.012423284858661631
1.717676134913025e+18,-0.0058265719255094104,-0.00021200599699647046,0.005767282236210587
1.717676135113025e+18,-0.014777955447302328,-0.002706273027805814,-0.0038427655934000007
1.717676135313025e+18,-0.007049805620186045,0.00043328782661162797,0.0015839865293046506
1.717676135513025e+18,-0.0005803215193988234,0.001943987312185882,0.0015990283652858829
1.717676135713025e+18,-0.007277104151850001,0.0014135126938267437,-4.972154812674404e-05
1.717676135913025e+18,-0.0031147000487488376,0.002180645192583721,-0.0009589155997290695
1.717676136113025e+18,0.007824041401904652,0.0027915099569093024,0.0014277188372476734
1.717676136313025e+18,0.007784932681928235,-9.701962906705882e-05,-0.00031261898143176444
1.717676136513025e+18,0.013804833972813952,0.0007316171068337211,-0.00478037201971279
1.717676136713025e+18,0.017327960830395353,0.0027488915254802325,0.00034805085666279087
1.717676136913025e+18,0.01036694369390465,0.004055858026447676,-0.0023795313960709307
1.717676137113025e+18,0.007368107287497645,0.004775525233799999,-0.0008875505792211767
1.717676137313025e+18,0.0007777872068511628,-0.003700703967222093,0.0006747924997930238
1.717676137513025e+18,-0.008498833722943024,-0.003942208732729069,0.0014987496310930226
1.717676137713025e+18,-0.010713490259954118,-0.004912071382662353,-0.003187276790594118
1.717676137913025e+18,-0.009223347847231396,-0.002564211427856977,0.00188231587033372
1.717676138113025e+18,-0.01304480428023256,0.0003622570565906977,0.0022374698361616275
1.717676138313025e+18,-0.003540884748229071,-0.0035870547589848824,-0.0010015341140465117
1.717676138513025e+18,-0.0026500751137305883,0.0004922851276847059,-0.0008300574078741175
1.717676138713025e+18,-0.006311085478443023,-0.00436839344316628,-0.00156978040952907
1.717676138913025e+18,0.0011187349730104655,0.0024647683590779067,-0.0020527897404000006
1.717676139113025e+18,0.011361374736651162,0.001797078961131395,7.103102238372425e-06
1.717676139313025e+18,0.012671850982468239,0.002001480543627059,6.108648171764717e-05
1.717676139513025e+18,0.017200105358999997,0.00574639076857093,0.0006037616969058141
1.717676139713025e+18,0.011872796427011624,0.0031182515951209302,-0.0020101712549337207
1.717676139913025e+18,0.004556625173694185,-0.0009447094730662788,0.0007742356342627909
1.717676140113025e+18,-0.003110020291780001,-0.0011750163496541174,0.0007797509301988236
1.717676140313025e+18,-0.014110265997709306,0.00807620062349651,-0.00014916463203720924
1.717676140513025e+18,0.05284335496353372,0.028575686185976744,0.04769717421789535
1.717676140713025e+18,0.055791717515882355,0.055656968214670595,-0.018638562421674113
1.717676140913025e+18,0.006431837857802326,-0.01577593807097558,0.025919134507662797
1.717676141113025e+18,0.0006499318103023248,-0.07055488243694184,-0.10426609425987206
1.717676141313025e+18,-0.04632983154822092,0.015349753160853491,-0.07133622082885581
1.717676141513025e+18,0.02509037242384353,-0.06375631650943529,0.018228923815431765
1.717676141713025e+18,0.05957707377162793,0.025492950073155815,0.04114813568848837
1.717676141913025e+18,0.05464753711284883,0.08595435705941862,0.09632485229465114
1.717676142113025e+18,0.05407929114761628,0.09460590714590698,0.11987866093127907
1.717676142313025e+18,-0.09001092497149411,-0.07013805656286234,-0.08061618445505411
1.717676142513025e+18,-0.04141450117987209,0.19210276688410463,0.08025768817116279
1.717676142713025e+18,0.5613953843804651,0.33289999601627907,0.19751531323116278
1.717676142913025e+18,0.4884133402035294,-0.04272819465406236,0.08328242963645884
1.717676143113025e+18,0.4202714167465116,-0.3248166917546511,-0.061477147004945346
1.717676143313025e+18,0.03261378473380234,-0.11439508342863952,-0.1461316409396512
1.717676143513025e+18,-0.1323481165641395,0.46622478373023263,0.13644304153980233
1.717676143713025e+18,-0.40150884213882343,0.19480477851764705,-0.05557791489122354
1.717676143913025e+18,-0.6074730566755815,-0.052740360424011624,-0.020492382619689536
1.717676144113025e+18,-0.19228389459140813,-0.3978079308860465,-0.17913254432410466
1.717676144313025e+18,0.5288064608046511,-0.07370864872624418,0.10996276333930234
1.717676144513025e+18,0.5272068475952941,-0.2716515677832941,0.09516913939630588
1.717676144713025e+18,0.11885936824725583,0.06771365053891859,-0.03489742647001163
1.717676144913025e+18,-0.417536731027907,0.43678962525697684,0.054715016255694186
1.717676145113025e+18,-0.5295380776686046,0.09524518350422904,-0.11298867472683718
1.717676145313025e+18,-0.03235966312952941,0.04585438519824353,0.014118163047294118
1.717676145513025e+18,0.487381305111628,-0.09682206784432557,0.07561227467879186
1.717676145713025e+18,0.34568908898,-0.21686409993953487,0.0656963760900314
1.717676145913025e+18,0.07932079068047058,0.003596914618584703,-0.06405815505293647
1.717676146113025e+18,-0.3755007103767442,0.24347223185290698,-0.029797415618441854
1.717676146313025e+18,-0.5106012713802326,-0.07806993993577094,-0.10598503955220931
1.717676146513025e+18,0.15440317693350003,0.050382138300686045,0.036033918588883725
1.717676146713025e+18,0.5112956166270587,0.028793291257278815,0.10301695545363532
1.717676146913025e+18,0.5021841210662791,-0.2248763725302326,0.042639782329779066
1.717676147113025e+18,0.1266017266189535,0.0044678369506046525,-0.02347567557476744
1.717676147313025e+18,-0.5643999898744188,0.20079693525865933,-0.1461742588466663
1.717676147513025e+18,-0.5498124392576471,-0.13690198320138822,-0.1241097566274353
1.717676147713025e+18,-0.07968588969873375,0.007948345358105815,0.05441668724381046
1.717676147913025e+18,0.4252151611290698,-0.09787332262484884,0.014909362498527907
1.717676148113025e+18,0.4632025936070589,-0.009339044478447061,0.012738327365149411
1.717676148313025e+18,0.3538434242037779,-0.14071909481581396,-0.01435532234709186
1.717676148513025e+18,-0.2875077715825582,0.15577762181553487,0.018588757200453488
1.717676148713025e+18,-0.31205601208313954,0.33369554024953485,-0.03778127612459302
1.717676148913025e+18,-0.6182724139200001,-0.14296751101886235,-0.0006144578458741174
1.717676149113025e+18,-0.515871756812058,-0.15029404524651166,-0.1725977119017093
1.717676149313025e+18,0.02757060042237093,-0.0730835786607128,-0.1639887808809651
1.717676149513025e+18,-0.06411594119174419,-0.11429564047402328,-0.04124757840738721
1.717676149713025e+18,-0.0008534139602847053,-0.05179773993058823,0.011574091256925883
1.717676149913025e+18,-0.16617297780023255,-0.11570205105802328,0.02981162186964768
1.717676150113025e+18,-0.1039784200149651,-0.14830518215023256,-0.09540145147058139
1.717676150313025e+18,0.02661878786345232,0.012224398744577907,-0.06444623401372093
1.717676150513025e+18,0.03604281849172823,0.04352591245990706,0.042347302489745886
1.717676150713025e+18,0.05359628109744186,0.11952350868813957,0.10335690051744187
1.717676150913025e+18,0.04508679284418605,0.03333474884846279,-0.004240538106088373
1.717676151113025e+18,0.01087518977312,-0.02096703521418824,-0.01929973395933647
1.717676151313025e+18,-0.0004865608040848835,3.5515427155813983e-05,0.003714910426620932
1.717676151513025e+18,0.0018006306142906983,0.008374530204477907,0.0217851427212686
1.717676151713025e+18,-0.007092424130941861,-0.004425218039113954,-0.0011435955515023252
1.717676151913025e+18,-0.011791486752988236,-0.004610232354714119,0.0029213710893470596
1.717676152113025e+18,-0.013414164299639538,0.006513523385724419,-0.004311568854658139
1.717676152313025e+18,-0.018911947100011626,-0.0036864978897011625,-0.02803585235660466
1.717676152513025e+18,-0.0038534201738988365,0.021429988792826746,0.010619102922358138
1.717676152713025e+18,0.001000740288552941,0.11303513701080001,0.08382861430117645
1.717676152913025e+18,0.01982824457106628,-0.034627509128119766,-0.024484312818363954
1.717676153113025e+18,0.018890638121034885,-0.07645043773976747,-0.045140066075
1.717676153313025e+18,0.021683903039411766,-0.007786729263497647,-0.00831854082046
1.717676153513025e+18,0.026831879996511626,0.01769376945743023,0.007635810014400002
1.717676153713025e+18,0.009699254107475581,-0.009923001095173257,-0.004382599648977908
1.717676153913025e+18,0.005707323982905815,-0.008260880639743024,0.01061910299215349
1.717676154113025e+18,-0.006674595944663531,-0.011796876784076473,-0.006435640016044703
1.717676154313025e+18,0.0024257015106383725,0.005419649183744186,0.0074511297887337215
1.717676154513025e+18,0.016546622028348838,0.05485707794581394,0.06122143603813954
1.717676154713025e+18,-0.007461784244304653,0.048535337374136046,0.025251445440194187
1.717676154913025e+18,-0.00621465070575647,0.0024757992465847065,-0.006636866259227055
1.717676155113025e+18,-0.0207019230984186,-0.019242240391770932,-0.010093475102818604
1.717676155313025e+18,-0.02683898345186046,-0.04920302688767441,-0.0031608700519232553
1.717676155513025e+18,-0.02983648249032558,-0.04654647516046512,-0.08122370626046511
1.717676155713025e+18,0.0005551683040788222,-0.02313740201965883,-0.0064068935380470595
1.717676155913025e+18,0.016290911384498837,0.01833304641081395,0.02106062892558139
1.717676156113025e+18,0.0278121047594186,0.01155670947543721,0.011428853988825581
1.717676156313025e+18,0.02289125946027883,0.013198272812199999,0.019249427223875296
1.717676156513025e+18,0.01783938251096512,0.006044720077488371,-0.001115183308932558
1.717676156713025e+18,0.02404747306669767,0.005604329370781396,0.004581485996156978
1.717676156913025e+18,0.0011897657735337205,-0.013304066624096509,-0.004070064091122093
1.717676157113025e+18,0.00010959638267764712,-0.005228283756109411,-0.0008875505451517646
1.717676157313025e+18,-0.010814437448502327,-0.01223860469388372,-0.0023511190474895358
1.717676157513025e+18,-0.008214710579315113,-0.007323274158749996,-0.0034165808728697667
1.717676157713025e+18,-0.006936156432710466,-0.002052789736025582,-0.0010725648898709298
1.717676157913025e+18,-0.00483481502136353,-0.006205667460001177,-0.00301479732762
1.717676158113025e+18,0.0019284859742837203,0.0003906693455593025,0.0009020911694965118
1.717676158313025e+18,-0.006850919451177907,0.00043328787471976795,0.0021380268845779074
1.717676158513025e+18,-0.0035843389053635292,-0.008203554561512944,-0.010948852863401177
1.717676158713025e+18,0.004684480586503489,-0.0016123989163767441,0.0019391405090790697
1.717676158913025e+18,-0.006552590139925579,-0.006541935539053486,0.0008168540802348834
1.717676159113025e+18,0.010679479003261627,0.00037646318853255795,-0.005746390658481396
1.717676159313025e+18,0.006994401797451763,-0.0010887766054929412,0.003237583607769412
1.717676159513025e+18,0.026519344482290704,-0.005973689152395349,0.00017757712971744192
1.717676159713025e+18,0.03079539789432558,-0.0017118419540744188,0.005348618370286046
1.717676159913025e+18,0.008122370772623257,0.0019107282568662793,-0.0038001470677279064
1.717676160113025e+18,-0.003526845716447059,-0.0021236534261294122,0.0008516174492023533
1.717676160313025e+18,-0.012632825587258138,-0.007635809617352326,-0.003388168487540698
1.717676160513025e+18,-0.01374090589055814,-0.007777871260687209,-0.00205278969035814
1.717676160713025e+18,-0.009876831023527906,-0.005007670480917441,0.000546937088305814
1.717676160913025e+18,-0.02031484710210588,0.0016134018331929406,0.0026626518245188246
1.717676161113025e+18,-0.012220847052046511,0.012835263534317446,0.006641378987690701
1.717676161313025e+18,-0.01026039722683721,0.0054196491875953485,-0.004950845779083721
1.717676161513025e+18,-0.01972554213742353,0.007750796138040003,0.006327840606475295
1.717676161713025e+18,-0.0077885258479860504,0.000958915732991861,-0.008885951613234884
1.717676161913025e+18,0.0019568982411,-0.005178144375875582,0.0004332877870976744
1.717676162113025e+18,0.007852453736080232,0.00682605884301628,0.0005753493904453489
1.717676162313025e+18,0.025349091465411762,0.005034244637172941,0.00849820722962706
1.717676162513025e+18,0.026647199812441857,-0.0069539139986383725,0.0029477777442395345
1.717676162713025e+18,0.02964469920569768,-0.008885951441372093,0.012423285028800002
1.717676162913025e+18,0.03410543278453487,-0.010832195058989535,-0.009340548569204651
1.717676163113025e+18,0.008058025130739997,-0.0015487218344670596,0.00493363151396
1.717676163313025e+18,-0.007589639682900001,-0.006584554029275579,-0.003033014617038373
1.717676163513025e+18,-0.012007754848279067,-0.004453630386281394,-0.0033171377527034885
1.717676163713025e+18,-0.012926976667058823,0.0009234838126635299,-0.0012181361995858824
1.717676163913025e+18,-0.02199468342511628,-0.0018396972882220935,0.0009589156364209306
1.717676164113025e+18,-0.012178228523779066,0.003643879428863954,-0.0029619838327802333
1.717676164313025e+18,-0.01506207852961628,0.003104045487997674,-0.00472354740485
1.717676164513025e+18,-0.009046188654235291,0.001656521542875294,-0.003690341855560001
1.717676164713025e+18,-0.0031147000520790695,-0.003146663873948837,0.000518524758122093
1.717676164913025e+18,0.00040842708256395356,0.004851402886100001,-0.006343049218974418
1.717676165113025e+18,0.013506504468976749,0.005320206087918604,-0.0019817589045883722
1.717676165313025e+18,0.01656701224058824,0.007793915986458823,0.0022745729537517645
1.717676165513025e+18,0.011503436241186046,0.003587054839286046,0.0010867711014209303
1.717676165713025e+18,0.020126573666093023,-0.0021948513078720935,-0.00246476826678721
1.717676165913025e+18,0.009998419209397647,-0.000729444459937647,0.003956247825787059
1.717676166113025e+18,-0.0077032889004197665,-0.01034918578921163,-0.0008168540231883719
1.717676166313025e+18,-0.006083787025851162,-0.001129389536055814,-0.006513523309595347
1.717676166513025e+18,-0.005387685231769766,0.0002628139399186044,0.004666722865739535
1.717676166713025e+18,-0.013329428690025886,-0.008864725845495292,-0.0026985850108129416
1.717676166913025e+18,-0.010473489707593023,-0.0028767469044837205,-0.0025500053005662795
1.717676167113025e+18,-0.00949326471975814,0.004425218125136046,0.0005611432239383725
1.717676167313025e+18,-0.010104129541094187,0.0023795315465325578,0.0027204792441546505
1.717676167513025e+18,-0.00795381858867059,0.002145213372674118,-0.0014912287139152945
1.717676167713025e+18,-0.004648965054401164,0.021302133444047678,0.01211074954126163
1.717676167913025e+18,6.747939086860473e-05,-0.002976189993487209,-0.002294294474837209
1.717676168113025e+18,0.012213744298651163,0.008772302441476745,0.001853903652989535
1.717676168313025e+18,0.013821714103364705,0.003208836748404706,-0.0004132320535494117
1.717676168513025e+18,0.016191468309453484,0.009823558148904652,0.0009731218673441862
1.717676168713025e+18,0.018109299523720927,0.003658085582675581,-0.00010654604602092988
1.717676168913025e+18,0.01918295065211765,-0.003129783583003529,-0.002540478763947059
1.717676169113025e+18,0.004712892892984883,-0.0007600293504860463,0.0016834297053674413
1.717676169313025e+18,-0.00172249654219186,-0.0010725648617825579,-0.0008594724950662792
1.717676169513025e+18,-0.00328517384830814,-0.0038001470846569766,-0.0026636545255872097
1.717676169713025e+18,-0.009103681788744709,-0.008088568303081174,0.00259078542350353
1.717676169913025e+18,-0.009464852582200001,-0.004822990423495348,-0.0008452664082697677
1.717676170113025e+18,-0.015104697063593023,0.0033171378394837208,0.004680928903644185
1.717676170313025e+18,-0.016141746528813953,-0.00446783657626628,-0.004141094928482557
1.717676170513025e+18,-0.005539106202036471,0.00010420632903058824,-6.827311419647056e-05
1.717676170713025e+18,-0.006140611576584882,0.0018396974219918602,-0.001697635811691861
1.717676170913025e+18,-0.010217778772039535,0.00831770542082907,0.0038143533322209295
1.717676171113025e+18,-0.0009109071219447059,-0.004164660353234118,-0.0041502871925047065
1.717676171313025e+18,0.007369444443345349,7.813391348139539e-05,-0.0037575286442779058
1.717676171513025e+18,0.010111232815824418,0.0009589157038662794,0.0021096143979813945
1.717676171713025e+18,0.01880540127553488,0.0032319008579569774,0.0008168541113046515
1.717676171913025e+18,0.014712857974164708,0.003165716907852941,-0.00039885871059176483
1.717676172113025e+18,0.011105663859789536,0.0003054323944151164,-0.0005753493540709302
1.717676172313025e+18,0.004528212851395348,-0.0010015340795116276,0.0016550175048511621
1.717676172513025e+18,-0.008086855195339533,-0.0061299569943872095,-0.0017970789366465118
1.717676172713025e+18,-0.0072926474233341206,-0.006263160576858824,-0.0029285575753282356
1.717676172913025e+18,-0.0031573184994127916,-0.005575916858963954,0.0005895555433104654
1.717676173113025e+18,-0.013769318268348835,-0.005590123073482558,-0.0008310601904058134
1.717676173313025e+18,-0.009422233994383722,-0.0025926237424395353,-0.0020954082621697677
1.717676173513025e+18,-0.003569965636565883,0.00019044606704823552,0.0004635385553305885
1.717676173713025e+18,-0.006410528531881395,0.00044749407106395365,-0.0003338446475209301
1.717676173913025e+18,-0.004691583508813954,-0.0004474939774651163,-0.002734685324754652
1.717676174113025e+18,0.0031567336462541167,0.0007078844650376474,0.0018146277176811759
1.717676174313025e+18,0.004940191451872094,0.0027062731404546513,0.0023085006100290696
1.717676174513025e+18,0.011517642498930232,0.009809352027127906,0.003388168545215116
1.717676174713025e+18,0.01477085267804651,0.005746390827094185,7.103066397674445e-06
1.717676174913025e+18,0.00913602192393647,0.0053648302231023536,0.0018002545103870593
1.717676175113025e+18,0.006886435052190696,0.02407233409523256,0.017565913957999998
1.717676175313025e+18,-0.0008417148164674422,0.002464768475837209,0.004453630466481395
1.717676175513025e+18,-0.010828643574979072,-0.009738321052516279,-0.0047945782698662785
1.717676175713025e+18,-0.00901744213026353,-0.0015487218583376474,-0.001979920482018824
1.717676175913025e+18,-0.004904675903029069,-0.009908794958447676,-0.003260313123060465
1.717676176113025e+18,-0.011141179086220929,-0.006058926211739534,-0.0010867711068395349
1.717676176313025e+18,-0.008888082409498826,3.593303797647097e-06,-0.001850560944087059
1.717676176513025e+18,-0.002276536756867441,-0.002649448322565117,-0.0021380267141302327
1.717676176713025e+18,-0.0058991069150872094,-0.0034449932561116284,-0.0031608700596616286
1.717676176913025e+18,-0.002560659876380233,-0.001768666625820931,-0.0024505621835069773
1.717676177113025e+18,0.0050827543911976455,-0.0011031499211023525,-0.0015630951665152944
1.717676177313025e+18,0.009159420242476747,0.002564211596752325,0.0022090575134395348
1.717676177513025e+18,0.019799832135813957,-0.0024931806517186055,-0.004141094916012791
1.717676177713025e+18,0.017455816388720933,0.004666722751386048,0.002251675983298837
1.717676177913025e+18,0.014899710750892942,0.001139083249891765,-0.00031261899783764695
1.717676178113025e+18,0.013804833848488374,0.0030756331519453477,-0.0019249343556534885
1.717676178313025e+18,0.005863591635866279,-0.0030330145821523265,-0.0023653251998790705
1.717676178513025e+18,-0.004450078763432559,-0.004851402839591859,-0.0011293895120406976
1.717676178713025e+18,-0.004015537453731764,0.001024096821229412,0.0005354049906964707
1.717676178913025e+18,-0.0027737522133186045,-0.0034591993055406974,-0.0034876117060697667
1.717676179113025e+18,-0.0063394978029313945,-0.004737753511162791,0.0010015341243313958
1.717676179313025e+18,-0.004676708895503531,-0.0020661602422188236,-0.0016205882968423535
1.717676179513025e+18,-0.0066946517053034895,-0.0034307870295197662,-0.002834128414202326
1.717676179713025e+18,-0.010871262159843024,-0.006826058762483719,0.0017544604533813951
1.717676179913025e+18,-0.0074759904556011645,-0.00046170009823139535,0.00012075233813837205
1.717676180113025e+18,-0.011432154514717647,-0.0001688861287976469,-0.0010887765862835294
1.717676180313025e+18,-0.007916381215383721,-0.002990396182287209,-0.002436355993588372
1.717676180513025e+18,-0.002830576854923255,0.0022232636595895354,0.0019391405238558138
1.717676180713025e+18,0.0047413052114720945,0.003970621151130232,-0.006669790944532556
1.717676180913025e+18,0.0083886108342,0.005177977322435293,0.001570281801054117
1.717676181113025e+18,0.014543553982558143,0.00664137880211628,0.0008452663835709306
1.717676181313025e+18,0.0274427450207907,0.020137228634241857,-0.007309067957897673
1.717676181513025e+18,0.007195627819301175,0.03582182940542353,0.029425715630572946
1.717676181713025e+18,0.03130682012215116,-0.07937690587171278,-0.0026352421975267422
1.717676181913025e+18,0.007923484305593023,-0.05761307281651163,-0.17320857777660467
1.717676182113025e+18,0.001615950381930232,0.13326086162290698,0.06970251268350813
1.717676182313025e+18,0.03896059631058824,0.033464609964,0.015842957721996474
1.717676182513025e+18,0.015182831009998832,-0.06701754875494882,0.05241361845418604
1.717676182713025e+18,0.048965073971162794,-0.044259284145732554,0.04202891731591862
1.717676182913025e+18,0.04596757511519769,-0.05261250494834884,-0.04629076442687907
1.717676183113025e+18,0.1882703235961059,0.15154117811505885,0.040478774826643533
1.717676183313025e+18,0.9044883001581392,-0.255916826922907,-0.052342587621127895
1.717676183513025e+18,0.2293264512804186,0.10436553767389184,0.09905243436686047
1.717676183713025e+18,0.09490143790048235,0.06806111617476471,0.08181635438197646
1.717676183913025e+18,-0.38486256719116285,0.12458089931930233,0.03773865773021162
1.717676184113025e+18,-0.5107859508186047,-0.016244741108816282,-0.10496219529355814
1.717676184313025e+18,-0.37667982159104646,0.09959226799930695,0.02415757139706977
1.717676184513025e+18,0.33551029594931764,0.06499960590105883,0.05857474599794117
1.717676184713025e+18,0.6364181027895349,0.06372171987708138,0.09663738730615118
1.717676184913025e+18,0.713628572083721,-0.16469908896589883,0.024953116066162788
1.717676185113025e+18,-0.1865304020114186,0.1302065386683721,-0.02481105404403488
1.717676185313025e+18,-0.5434594448894117,0.10865128526717648,-0.029921593954712947
1.717676185513025e+18,-0.49778731514069763,0.06416211143993024,-0.05377740975822791
1.717676185713025e+18,0.045782894554999995,-0.007621603627208138,-0.017935274105181392
1.717676185913025e+18,0.5387933909244187,0.10597083254322093,0.1351502810516279
1.717676186113025e+18,0.5633412946705882,-0.2366957288251765,0.0018864938884635301
1.717676186313025e+18,-0.2748784985105814,0.022552275787127905,-0.03336316138231396
1.717676186513025e+18,-0.813746468944186,0.10320063240313948,-0.14894446032180234
1.717676186713025e+18,-0.532966943788353,-0.005530122946458822,-0.04669522253522354
1.717676186913025e+18,0.19503278781288375,0.02250965682021396,0.04133281603314418
1.717676187113025e+18,0.5463368611988372,-0.24719424658290698,0.04906096548705814
1.717676187313025e+18,0.40559645517441856,-0.22139586509069767,-0.01914279726088721
1.717676187513025e+18,-0.01597411319202354,-0.0676227315997059,-0.10106937407635294
1.717676187713025e+18,-0.3819929262534884,0.43620717698837214,0.019299065279674423
1.717676187913025e+18,-0.5097631073953488,0.17306651623883723,-0.024555343473976744
1.717676188113025e+18,-0.23305556743069764,0.022850604382139535,0.008914364307612797
1.717676188313025e+18,0.2338767687498588,0.032084774049247054,0.06200996132525883
1.717676188513025e+18,0.5379694350255815,-0.05654761036755813,0.08831257895011628
1.717676188713025e+18,0.4559288724872095,-0.1258026288719767,0.06289776336773258
1.717676188913025e+18,0.12292935040102232,-0.09014567523502706,-0.06372756990400352
1.717676189113025e+18,-0.04073260637397675,0.05353590532293022,-0.021955616919948837
1.717676189313025e+18,-0.3303109225511628,0.35381146044383716,0.03383196437889186
1.717676189513025e+18,-0.23939151376953494,0.006485111002732561,-0.08274376561255813
1.717676189713025e+18,-0.412863740058,-0.025825206993650592,-0.047198288395976465
1.717676189913025e+18,-0.3008473518083721,-0.21342620860500003,-0.018048923278860464
1.717676190113025e+18,-0.1265662105459302,-0.16069295152093024,-0.08747441585399998
1.717676190313025e+18,-0.017292445470209306,-0.10335689965104651,0.007451129465263953
1.717676190513025e+18,-0.013501908265211766,-0.0682551554015294,0.0031225969923729417
1.717676190713025e+18,-0.010345634116496513,0.01260796490185349,-0.038789913231162786
1.717676190913025e+18,-0.016695786587501163,0.0010015340913360478,-0.00951102251566628
1.717676191113025e+18,-0.019452449716011767,-0.027894960518352933,-0.004552739150884705
1.717676191313025e+18,-0.019068215123,-0.01388651917718837,-0.01681298752815814
1.717676191513025e+18,-0.011254828336232559,0.007550572816008138,0.005860040075768605
1.717676191713025e+18,-0.0007848901642895347,-0.0034165808281802308,-0.0027773037772988378
1.717676191913025e+18,0.01277246365057412,0.004660539078432942,-0.012774260533116468
1.717676192113025e+18,0.006247157991127906,-0.02306369687709302,-0.003004602359295349
1.717676192313025e+18,0.017953031788674415,0.00507870144174186,-0.008715477623229068
1.717676192513025e+18,0.008719029366747675,-0.0030188083810279063,0.013133592800883729
1.717676192713025e+18,0.016466399167517645,-0.002023040401524706,0.0036544086981670585
1.717676192913025e+18,-0.019394956689005816,-0.005703772247455813,0.012892088119705816
1.717676193113025e+18,0.2094804485343244,-0.16533836583111977,0.06894958546675231
1.717676193313025e+18,0.953044950588372,-0.7498223095430232,-0.11277558297289533
1.717676193513025e+18,1.1601489980329414,-0.2875484247835212,-0.20240106159352936
1.717676193713025e+18,-0.797452006786279,-0.0997343304001314,-0.06338077202422093
1.717676193913025e+18,-0.5389283487588372,0.3578460093609303,0.15330574907391858
1.717676194113025e+18,1.1176903107623528,1.5578237652952944,0.8575140090635295
1.717676194313025e+18,0.41625107143643025,-0.15206981411151166,0.008076200469104653
1.717676194513025e+18,1.4380005542790697,0.42518319474790345,0.09020199675593024
1.717676194713025e+18,1.1043689375581396,-0.34594124966760464,0.21520197851647674
1.717676194913025e+18,0.7463995028988235,-0.5443128576988236,-0.03804250224184236
1.717676195113025e+18,0.49508104352441856,-0.22757554296162794,0.07984570888498836
1.717676195313025e+18,0.28394912920790694,-0.3496916723912791,-0.09673682989515117
1.717676195513025e+18,0.7732660212060464,0.18146235658469767,-1.0816639526778176
1.717676195713025e+18,3.776619428670589,3.8684449445815297,-0.9100411912816468
1.717676195913025e+18,0.24074820354562795,8.661018449186047,0.8778339902563721
1.717676196113025e+18,1.8929527498372094,7.55440136994186,4.703353357848838
1.717676196313025e+18,1.8532289911529403,2.6539020278517653,1.8418830675588236
1.717676196513025e+18,-0.22643550016930228,0.5954155850111861,0.9096273766069768
1.717676196713025e+18,0.07361275927290699,0.6772430517652325,1.4112610068372093
1.717676196913025e+18,-0.15164007838020932,-0.293463701895814,0.4536239217480581
1.717676197113025e+18,-0.20366052067767054,-0.18338520001065883,-0.007513637421505883
1.717676197313025e+18,0.3580626514589186,0.6793881805441861,-0.2999132968686047
1.717676197513025e+18,0.24661629087933334,0.46354455649666676,-0.10647373112766668
1.717676197713025e+18,,,
