Timestamps,Gyro_X,Gyro_Y,Gyro_Z
1.7176994945353288e+18,0.2395437534470859,-0.5831480273568236,0.15861187698862117
1.7176994947353288e+18,-3.350573564587142,-0.6618548288215477,0.2684900954783333
1.7176994949353288e+18,-0.8855129332981178,-5.148266500588235,1.1455506117282352
1.7176994951353288e+18,2.3348809250928575,-2.936453666023809,3.4318926050345246
1.7176994953353288e+18,2.714051863947647,-2.0341078902504703,-2.1317868554564705
1.7176994955353288e+18,-0.49543803275645243,-0.17131084382119047,0.6381944873581785
1.7176994957353288e+18,-0.9055190799130588,-0.6919399303421176,2.6400351418788235
1.7176994959353288e+18,0.9208813294778571,-0.6515785806666667,0.9619817113342857
1.7176994961353288e+18,0.6869094236809412,0.5217390143585883,0.025866687471105883
1.7176994963353288e+18,1.1088150321119046,0.583096431125,0.2268752174530952
1.7176994965353288e+18,0.8801981799809523,0.4068669985355596,0.09898270862192857
1.7176994967353288e+18,1.6243874914941183,0.3188074720616553,0.44055292396278817
1.7176994969353288e+18,1.2822302045785714,-0.08634398601320238,0.0874784173010714
1.7176994971353288e+18,-0.5242066562156471,0.6689792567529411,-0.3453155514958824
1.7176994973353288e+18,-0.20369120143309521,-0.2517745153145238,0.0833470160577381
1.7176994975353288e+18,0.4824013485494118,-0.4893596199112941,-0.03314115804265058
1.7176994977353288e+18,0.36108708889249996,-0.302489379793381,-0.018190887065561902
1.7176994979353288e+18,-0.4263129956897765,0.8407468133364706,-0.28430717850588233
1.7176994981353288e+18,-0.02550650911297621,-0.35034817544892854,0.04466093337190477
1.7176994983353288e+18,-0.023804863414511903,-0.8034786725523808,0.2274933352485714
1.7176994985353288e+18,0.11472879305099999,0.39917251498868117,-0.1526803748726353
1.7176994987353288e+18,0.5489880655511905,-0.020866979221273802,0.04813694531084524
1.7176994989353288e+18,0.24808034353774117,-0.12496407735944706,-0.06560230224934117
1.7176994991353288e+18,-0.15249728991885714,-0.08248256012702379,-0.007246539271654763
1.7176994993353288e+18,-0.3493498341129412,-0.017620247952141174,0.011975301846243527
1.7176994995353288e+18,-0.35903638245714287,-0.17877917748738098,0.19585290269780953
1.7176994997353288e+18,-0.2398141412738118,0.9322948526188232,-0.26638240382117645
1.7176994999353288e+18,0.054056346492238096,0.26878643013488096,-0.06199008857352382
1.7176995001353288e+18,0.4091113170726191,-0.14367636635595235,-0.021259666874952378
1.7176995003353288e+18,0.5574421402329411,-0.35031641055411766,0.16713050494152942
1.7176995005353288e+18,0.42110282918654757,-0.39575994121547614,0.2970572030654762
1.7176995007353288e+18,-0.24061183622600005,-0.11453655576434119,0.0724851124054553
1.7176995009353288e+18,-0.4791187761119046,0.03823976548411309,-0.03989777981547619
1.7176995011353288e+18,-0.44189678894964707,0.14984532384611768,-0.08214548194290588
1.7176995013353288e+18,0.1725170826360631,0.023543071589975,0.009609936300083331
1.7176995015353288e+18,0.553978276255294,0.16520004758952941,-0.027399194390345178
1.7176995017353288e+18,0.42582962336213454,-0.10413854952775002,-0.01176244531940714
1.7176995019353288e+18,-0.17560040681429404,0.10912713545991667,-0.08768930527344047
1.7176995021353288e+18,-0.3677614888741176,-0.09838862927741175,0.011299776378209407
1.7176995023353288e+18,-0.526844851670238,-0.05962669142994167,0.043868286444452384
1.7176995025353288e+18,-0.0031647261822588244,0.010241573039788237,0.05119888151552942
1.7176995027353288e+18,0.3674718938059524,0.1125231557369881,-0.022190481079535713
1.7176995029353288e+18,0.4984271077541176,0.00676243749066706,-0.031933837540717644
1.7176995031353288e+18,-0.0563252077596512,-0.06924753581788094,-0.018292693688857147
1.7176995033353288e+18,-0.20860070245052384,-0.07027288706372976,0.0766649670190119
1.7176995035353288e+18,-0.2717866053482353,-0.09621113780609411,0.06876253656551766
1.7176995037353288e+18,-0.37348583110511907,0.054718097107141664,-0.010315319647250002
1.7176995039353288e+18,0.2216773692568588,-0.01309997841781647,0.025500178103470942
1.7176995041353288e+18,0.322727333357857,0.11437751378958214,-0.11354123487157859
1.7176995043353288e+18,0.33479190801764697,0.04900252663527058,-0.011423742039235294
1.7176995045353288e+18,-0.09491039259352382,0.021208761589809524,-0.043017463864380955
1.7176995047353288e+18,-0.16845999707905884,-0.12015635077931762,-0.006644760434341177
1.7176995049353288e+18,-0.4679635390654761,-0.07353801087415478,0.0794428674736762
1.7176995051353288e+18,0.08744933016990476,0.0842641977504012,0.020997874379269407
1.7176995053353288e+18,0.3536419372376471,-0.08399419307544706,0.04607495103100388
1.7176995055353288e+18,0.39454551750952377,0.1903334610366667,-0.11661728656319045
1.7176995057353288e+18,-0.017020180596082353,0.04636779845527058,-0.04152773259887494
1.7176995059353288e+18,-0.17394239231989284,-0.058470445511325006,0.0471479544886869
1.7176995061353288e+18,-0.3899100943505882,-0.12582645132383763,0.038586682494844704
1.7176995063353288e+18,-0.14853405654862656,0.12753254525678573,0.016401976128294048
1.7176995065353288e+18,-0.1092365564691294,-0.07643405977363531,0.04087915592047059
1.7176995067353288e+18,-0.054310866358362256,0.006650235844689283,6.908389314285726e-05
1.7176995069353288e+18,-0.06582242801432976,0.05051488656633334,-0.04210846522863095
1.7176995071353288e+18,0.2564669168098941,0.016508147026623538,-0.02212434870874353
1.7176995073353288e+18,0.28164058231904765,-0.14046941679214284,0.04695161088764286
1.7176995075353288e+18,0.1215056051565059,-0.05512627072257882,-0.08185802413879259
1.7176995077353288e+18,-0.13333559438678572,0.024852030278877384,-0.0012326024342142893
1.7176995079353288e+18,-0.19293700500729413,-0.10137818725199998,0.1038179831449294
1.7176995081353288e+18,-0.25158544310595243,0.05783778157385714,0.004737702303221786
1.7176995083353288e+18,0.07906250012069412,0.028847261915458822,0.018076587010658823
1.7176995085353288e+18,0.41423806814404757,-0.10845811274024164,0.0069920196800714275
1.7176995087353288e+18,0.11416662601813098,0.10790544106059526,-0.042195729203750004
1.7176995089353288e+18,-0.06143236980918823,-0.04678281609884706,0.07638016106615295
1.7176995091353288e+18,-0.15379897744413928,-0.1864793060231548,0.06279727912864287
1.7176995093353288e+18,-0.3832338911670588,0.13122526351878822,-0.016720147277294116
1.7176995095353288e+18,0.10340407936845236,-0.009944448082323813,-0.0035523677387067857
1.7176995097353288e+18,0.17570572258198824,0.04063302081622352,-0.050187390514439656
1.7176995099353288e+18,0.18743920890342855,-0.02006705975640595,-0.013296835894702385
1.7176995101353288e+18,-0.14485973240524708,0.08222812565282353,-0.012163945073952938
1.7176995103353288e+18,-0.19410762466190473,0.14053486505035714,-0.03858882095246429
1.7176995105353288e+18,-0.10546932443368764,-0.013573171700158334,0.05475445791847179
1.7176995107353288e+18,0.08855578530332117,0.03379153083854118,0.009661268013937642
1.7176995109353288e+18,0.0645643739057024,0.14712419657334527,-0.1286233443363928
1.7176995111353288e+18,0.10552296542259262,-0.03674515775717647,-0.0826673970831
1.7176995113353288e+18,-0.16800844798240477,0.06594605192847262,0.003661447305714284
1.7176995115353288e+18,-0.17655911134482355,-0.09794306978564706,0.07704131421457647
1.7176995117353288e+18,-0.0854131720887738,-0.08841650569369046,0.10138246494630951
1.7176995119353288e+18,0.10954736988481176,-0.15925776165158823,-0.001384287707521998
1.7176995121353288e+18,0.2444370763560238,-0.17506227779654762,0.059103108736234526
1.7176995123353288e+18,0.18249425484089285,-0.13929862578616667,-0.07472334684761905
1.7176995125353288e+18,-0.21770147252399993,0.1936179208152706,-0.044977223255647056
1.7176995127353288e+18,-0.16451062038544048,0.01885990893389286,-0.07869385228573808
1.7176995129353288e+18,-0.17862161895678388,0.3228381669663529,-0.08242575288962586
1.7176995131353288e+18,0.20068877743913094,-0.06559699606569047,0.001748914053369052
1.7176995133353288e+18,0.3410009893831765,-0.21840214895741175,0.13431722711215294
1.7176995135353288e+18,-0.06299362320654321,-0.08824924959415476,0.10184787251316668
1.7176995137353288e+18,-0.2369898723747059,-0.026912313431600002,0.010092454292294115
1.7176995139353288e+18,-0.2521308398833333,0.19161333141990478,-0.012853244884027382
1.7176995141353288e+18,0.11303946798865716,0.05049307079313571,0.003356023653067024
1.7176995143353288e+18,0.2453494963422353,0.09558052826295294,-0.10372635608591767
1.7176995145353288e+18,0.2353398148369047,-0.176523949417,0.09720834178707143
1.7176995147353288e+18,-0.06455128434659999,0.02983180406035177,0.09143574945643528
1.7176995149353288e+18,-0.2759247962936429,0.011406118351234524,0.03898150846633333
1.7176995151353288e+18,-0.16706582813738471,0.08368697284649412,-0.062246233854399986
1.7176995153353288e+18,0.2586174566479762,-0.05817229395357261,-0.05414361056880953
1.7176995155353288e+18,0.029540752723823525,-0.03057021074078823,-0.033198650838364714
1.7176995157353288e+18,-0.07560325619502142,-0.07723400055686905,0.07668678231063096
1.7176995159353288e+18,-0.13646255044485717,0.2412864847035714,-0.11196321159815477
1.7176995161353288e+18,0.025753500468661185,0.02462163600866823,-0.023281365286120004
1.7176995163353288e+18,0.025324709470535715,0.04430460653324525,0.033527515588440485
1.7176995165353288e+18,0.29924778447023526,0.01811072280281764,0.007958082126585882
1.7176995167353288e+18,0.0056539737196666644,0.03344025084638096,-0.10189150399791666
1.7176995169353288e+18,-0.031105599887515288,0.030809159617670587,-0.031488278035411765
1.7176995171353288e+18,0.08346427917868214,-0.20331396489272618,0.029047968240071425
1.7176995173353288e+18,0.3914497880201295,0.08105943295200001,0.04725352703627059
1.7176995175353288e+18,-1.6736814842176193,-0.8595402720986905,0.9777373937035715
1.7176995177353288e+18,-0.32200831398353574,0.5693750910071429,0.045315412853785715
1.7176995179353288e+18,-0.7274705813235295,0.03389663308968236,-0.14422912230499998
1.7176995181353288e+18,-1.127929467547619,-0.2886362384861905,-0.04495181391201191
1.7176995183353288e+18,-1.2837637873411767,0.022113568320529402,-0.11891848658541179
1.7176995185353288e+18,-1.7116958343214288,1.0935038590357142,-0.33591872312261906
1.7176995187353288e+18,-0.8158538874376468,1.2996583791588234,-0.6622491587564706
1.7176995189353288e+18,-0.6411714592869048,1.2009838869369045,-0.3611361712559881
1.7176995191353288e+18,-0.6063647186058824,0.4627554231343411,-0.4329883003941176
1.7176995193353288e+18,-0.3626996508084524,0.07826298814226189,-0.13532720898305953
1.7176995195353288e+18,-3.6259302432999996,-5.4292286407261905,-0.2943265714657619
1.7176995197353288e+18,1.0685946478562354,-4.415171651975294,-0.9428148987676469
1.7176995199353288e+18,2.8615448656647624,-2.878394086496429,0.6313215527425238
1.7176995201353288e+18,3.893801851882353,-1.9692538946677647,0.928864226735506
1.7176995203353288e+18,0.870723682952381,-1.8530142469107145,-0.23801499499749998
1.7176995205353288e+18,2.138737944033412,-0.3917183816198941,-1.4093485951541178
1.7176995207353288e+18,0.08092362991607142,-0.31517173380749997,-0.5966868731380954
1.7176995209353288e+18,-0.1961277846017646,0.19800524013534115,-0.42542906544117637
1.7176995211353288e+18,0.3382603026329762,0.6824072870654763,0.058710420461642855
1.7176995213353288e+18,-0.06894938473998052,-0.32127752497052625,-0.06347587121110526
1.7176995215353288e+18,,,
