Timestamps,Acc_X,Acc_Y,Acc_Z
1.7177026536047242e+18,1.8828595734,4.0481218871,8.5755769959
1.7177026538047242e+18,0.9587637405320001,3.8855823898500006,7.800638488700001
1.7177026540047242e+18,0.847028595027,1.8956280212670003,9.119493415750002
1.7177026542047242e+18,-0.8691750412499999,1.9095415879267001,8.963794692999999
1.7177026544047242e+18,-7.191203315699998,5.2781515274999995,5.088278869710001
1.7177026546047242e+18,-9.8138020935,11.208511779500002,-3.2254027405049994
1.7177026548047242e+18,-3.9631136627485,10.4924608152,1.4362932128600001
1.7177026550047242e+18,3.4911002197750003,9.446765350149999,1.4240486755400001
1.7177026552047242e+18,2.4123609695500003,9.284689887999999,0.4988975373285
1.7177026554047242e+18,5.338900331210526,6.700153800578947,-0.5918376882805262
1.7177026556047242e+18,4.922558486900001,8.30118260185,-1.659688659735
1.7177026558047242e+18,3.6857853698499996,7.3859932481,-1.2456197205100001
1.7177026560047242e+18,3.3285382688776,10.64720153015,2.1811517715924
1.7177026562047242e+18,1.85673889145,9.123969108649998,3.0285471039
1.7177026564047242e+18,2.4051160354949994,9.005288406199998,2.93345734405
1.7177026566047242e+18,1.6700321502000002,9.396881584349998,2.8530670167
1.7177026568047242e+18,1.5495027923500002,9.0712113189,3.11137735755
1.7177026570047242e+18,1.2118050384149999,9.148301010050002,3.2201187286999997
1.7177026572047242e+18,1.5056873281578944,9.454575950263155,3.2624577894210525
1.7177026574047242e+18,1.438269104015,9.888631484849999,3.5360592269500004
1.7177026576047242e+18,2.2594539413619996,7.783214721750001,5.6760091781
1.7177026578047242e+18,-1.4393393783955,4.950475433199999,7.158466392550001
1.7177026580047242e+18,0.14435231780499996,2.5730742644499998,9.74048455775
1.7177026582047242e+18,-0.8537047119635,4.20515283955,8.755121131900001
1.7177026584047242e+18,0.7289391631805,4.298805587750001,9.1592133179
1.7177026586047242e+18,0.04138893145,4.06064334877,8.958884903
1.7177026588047242e+18,0.4874014434249999,0.8116496657975001,9.13525563795
1.7177026590047242e+18,-2.0081766068568414,1.8605047447894738,9.857364662210523
1.7177026592047242e+18,0.6560033340429999,1.7955386581,9.376396682249998
1.7177026594047242e+18,-1.80082266996,0.594466301015,8.685912551900001
1.7177026596047242e+18,-0.25628205874150006,1.1940818939784998,10.374401321849998
1.7177026598047242e+18,-0.11741583259000002,1.700628524856,9.67464397345
1.7177026600047242e+18,1.058374099723,1.79565840919,9.30036978155
1.7177026602047242e+18,-0.319151321421,2.5428296585,7.973005050750001
1.7177026604047242e+18,-0.30059740448949995,0.838870559715,9.45945146915
1.7177026606047242e+18,-0.807615554885,-0.0017663269044999846,10.8723782735
1.7177026608047242e+18,-1.375844180273684,0.019357115094736838,12.237612279473684
1.7177026610047242e+18,-0.768689003,0.26212740325500006,11.1063716805
1.7177026612047242e+18,-0.389998992895,0.7017332382200001,9.9348254239
1.7177026614047242e+18,-0.21662203218049997,1.8861377563999997,7.805570732049999
1.7177026616047242e+18,-0.003839515668500021,2.3384446793499998,6.856417007500001
1.7177026618047242e+18,-0.6640790405220001,1.3203518143450002,8.565682571349999
1.7177026620047242e+18,-0.597340324371,0.3902609481736,10.9402246855
1.7177026622047242e+18,-1.0817405090385,0.20565733336099998,11.881414972000002
1.7177026624047242e+18,-0.95613670348,0.12939841461,11.391034721999999
1.7177026626047242e+18,-0.6741979980668421,0.44685234472105273,10.27717849631579
1.7177026628047242e+18,-0.03893403625150001,1.505404495215,9.09471993235
1.7177026630047242e+18,-0.3132311325142,2.12304261015,6.79555357355
1.7177026632047242e+18,0.06464307403,1.8936895523499995,7.5047862167
1.7177026634047242e+18,-0.7633002090355,0.72658156584,9.949884110149998
1.7177026636047242e+18,-0.9985360336855,-0.06189628601150001,11.4798525245
1.7177026638047242e+18,-1.03925136567,-0.130917755133,12.157934944
1.7177026640047242e+18,-0.8471333770599998,0.471115310665,10.777775002
1.7177026642047242e+18,-0.293868896488,0.7988737334549999,9.833620880049999
1.7177026644047242e+18,0.056645363265263156,2.518906643473685,6.960430972473685
1.7177026646047242e+18,-0.17232165527625,2.08065076445,6.973555915950001
1.7177026648047242e+18,-0.47704298399669504,1.114522338955,8.82602867875
1.7177026650047242e+18,-0.62736788167,0.58434734345,10.959796486000002
1.7177026652047242e+18,-1.28962820436,0.0973276061745,11.865488090000001
1.7177026654047242e+18,-1.08863367464,0.32020662689429996,11.394245545
1.7177026656047242e+18,-0.7979381790600001,0.3251987457322,10.471916038500002
1.7177026658047242e+18,-0.38873412322499995,1.0964100036300002,9.32206716155
1.7177026660047242e+18,-0.18555413818849997,2.42683586885,7.082499366950001
1.7177026662047242e+18,-0.16031661986999998,2.1736693051052627,7.470428322210526
1.7177026664047242e+18,-0.5450839920005001,0.9262738037450001,8.838467811700001
1.7177026666047242e+18,-0.9763746185435,0.295972023,10.813692810500001
1.7177026668047242e+18,-1.4671665114925,-0.3316578140295,11.422663947
1.7177026670047242e+18,-1.560654602,0.1022448806699,11.711331162
1.7177026672047242e+18,-1.1433224486999998,-0.014085708613999997,10.225693061949999
1.7177026674047242e+18,-1.32300130461,0.6506669311500001,9.445799857999999
1.7177026676047242e+18,-0.5226456527754999,1.9140547027849997,7.014884971600002
1.7177026678047242e+18,-0.2654879150605,1.7884508972700002,7.450396820099999
1.7177026680047242e+18,-0.16769075895965785,2.109815248157895,9.649336732210527
1.7177026682047242e+18,0.0954939194187,2.62917759705,9.96742762805
1.7177026684047242e+18,-0.09564360812500002,1.981579284695,10.60946500365
1.7177026686047242e+18,0.6837182006420001,0.47776148988200007,9.9523240358
1.7177026688047242e+18,-0.047765670772999994,-1.669650444005,10.26866120835
1.7177026690047242e+18,0.47314359280650004,-1.089644073415,9.80979043575
1.7177026692047242e+18,-0.9367894363225,-1.2475357360800001,9.602209602250003
1.7177026694047242e+18,-0.7095769271750001,-0.924320365905,9.72815769195
1.7177026696047242e+18,-0.103412452701,-0.9236916732700001,9.698354667599999
1.7177026698047242e+18,-0.07132667541400001,-1.3226869585000003,9.7270125734
1.7177026700047242e+18,-0.093114262627,-1.1972734152105264,9.743719410157896
1.7177026702047242e+18,-0.07543563080365,-0.969346733075,9.727267044049999
1.7177026704047242e+18,-0.41770637512500003,-1.17096995535,9.670804458600001
1.7177026706047242e+18,-0.30855335998699995,-1.2418625335,9.6978981171
1.7177026708047242e+18,0.24118595123890002,-0.98077546691,9.75312577055
1.7177026710047242e+18,0.53929852293235,-1.2284055176499997,9.726331489650002
1.7177026712047242e+18,0.31704071046990007,-0.5176909561099999,9.841913635400001
1.7177026714047242e+18,0.5250481567765001,-0.41027433014445014,9.469211174049999
1.7177026716047242e+18,0.08055498504499997,-0.015597564699034994,9.9472944941
1.7177026718047242e+18,0.10732681273342107,-0.532655495094737,9.759483995999998
1.7177026720047242e+18,0.05456153869,0.13128449249260002,9.73880056
1.7177026722047242e+18,-0.239292388917,0.10092013550349999,9.67388056175
1.7177026724047242e+18,-0.40416703034249996,-0.295395721432,9.732461242700001
1.7177026726047242e+18,-0.32717463684400006,-0.54598212433,9.811077758899998
1.7177026728047242e+18,-0.342031242375,-0.729073883065,9.743882492100003
1.7177026730047242e+18,-0.37005297088999994,-0.9593026199299999,9.76308007045
1.7177026732047242e+18,-0.5811889114399998,-0.851601585395,9.730829635549998
1.7177026734047242e+18,-0.6424490203850001,-0.880094833375,9.73139096845
1.7177026736047242e+18,-0.44130598368947366,-0.8560855504052632,9.73361936063158
1.7177026738047242e+18,-0.558690696725,-0.8499475250349999,9.720673256000001
1.7177026740047242e+18,-0.5078189849900001,-0.8378002853450001,9.705966339199998
1.7177026742047242e+18,-0.62458367158,-0.76318794251,9.714281547599999
1.7177026744047242e+18,-0.5791456603999999,-0.864983757025,9.70836135865
1.7177026746047242e+18,-0.55295761871,-0.8462127914450001,9.70391560365
1.7177026748047242e+18,-0.5935531997799999,-0.969578750615,9.72092772665
1.7177026750047242e+18,-0.5844895477250001,-0.9851164398499999,9.716017936650001
1.7177026752047242e+18,-0.6227499847450001,-1.0397228851,9.7283747406
1.7177026754047242e+18,-0.5599145989631579,-0.9006927891473684,9.68662498068421
1.7177026756047242e+18,-0.6894138565150001,-1.11191027075,9.68369265745
1.7177026758047242e+18,-0.638856491085,-1.01857186884,9.7203514253
1.7177026760047242e+18,-0.6418951721299999,-1.07128475185,9.694889373899999
1.7177026762047242e+18,-0.63103525542,-1.0323731689300002,9.70531519325
1.7177026764047242e+18,-0.6963893508950001,-0.9991273040800002,9.689373344349999
1.7177026766047242e+18,-0.62396994782,-0.9560244369600002,9.700719749500001
1.7177026768047242e+18,-0.674437499995,-0.9949734420350002,9.6901666946
1.7177026770047242e+18,-0.7148235168400001,-0.937373222385,9.686708885149999
1.7177026772047242e+18,-0.6753246026263158,-0.9978722822263157,9.690162361578947
1.7177026774047242e+18,-0.6029686202999999,-1.0229577484349999,9.7086981583
1.7177026776047242e+18,-0.7143145752050001,-1.07945027168,9.69817504115
1.7177026778047242e+18,-0.6326818313600001,-1.1029514009499999,9.68737500005
1.7177026780047242e+18,-0.7008949813850001,-1.0723475419100001,9.713263664149999
1.7177026782047242e+18,-0.6747368774400001,-1.097382980465,9.692733856249998
1.7177026784047242e+18,-0.773209602355,-1.000242484975,9.682150863649998
1.7177026786047242e+18,-0.7071295166100001,-0.956076828035,9.6790448226
1.7177026788047242e+18,-0.742994934085,-1.0415490876299998,9.7067971115
1.7177026790047242e+18,-0.8506573646842105,-0.9258562510052633,9.685388079157894
1.7177026792047242e+18,-0.8576115874899999,-0.8278235320749999,9.692808700750001
1.7177026794047242e+18,-0.4512291641275,-0.8580980757650002,9.866559883999999
1.7177026796047242e+18,-0.47830785369499995,-0.5465659104,9.533465057299999
1.7177026798047242e+18,-0.29214747619750003,-0.61537033081,9.8123426283
1.7177026800047242e+18,-0.15034735107449998,-0.55288277436,9.769164917100003
1.7177026802047242e+18,-0.34528697205,-0.5567148056000001,9.74835818465
1.7177026804047242e+18,-0.13772110748799998,-0.6782021713149999,9.711699417050003
1.7177026806047242e+18,-0.307782463075,-0.656377555855,9.798114715499999
1.7177026808047242e+18,-0.56675301,-0.5452293476263158,9.713907719736842
1.7177026810047242e+18,-0.4658986587499999,-0.9095311203199999,9.69858668515
1.7177026812047242e+18,-0.26999354554500005,-0.721634353625,9.8796576459
1.7177026814047242e+18,-0.1914294204755,-1.0530227279950002,9.652153244099999
1.7177026816047242e+18,-0.9729766845700001,-0.552972587635,9.769075103849998
1.7177026818047242e+18,-0.8103623428200001,-0.6904841308615,9.60556262975
1.7177026820047242e+18,-0.38755158232250003,-0.625698852529,9.75578274535
1.7177026822047242e+18,-0.787250404365,-0.7412061538750001,9.7213767929
1.7177026824047242e+18,-0.8264239425500002,-0.6836807785,9.676305519200001
1.7177026826047242e+18,-0.830600257885,-0.60210042572,9.75620935825
1.7177026828047242e+18,-0.5942248294105262,-0.6905061902526315,9.723645364789473
1.7177026830047242e+18,-0.7483163680999999,-0.762499374395,9.7028677826
1.7177026832047242e+18,-0.8894354095049998,-0.7209457855349999,9.776731681650002
1.7177026834047242e+18,-0.3011362838815,-0.6006858672850001,9.607755569500002
1.7177026836047242e+18,-0.102454444892,-1.096260314975,9.8088324279
1.7177026838047242e+18,-0.60082807161,-0.8906628570649998,9.7365926514
1.7177026840047242e+18,-0.7101457443200001,-0.9340875549150001,9.699806648250002
1.7177026842047242e+18,-0.830899635315,-0.858389968875,9.680856056349999
1.7177026844047242e+18,-0.808513687135,-0.8865164795000002,9.7032045823
1.7177026846047242e+18,-0.8306936163789473,-0.9736384662842104,9.68095256605263
1.7177026848047242e+18,-0.869339698795,-0.9469982070549999,9.658889236450003
1.7177026850047242e+18,-0.863666496275,-1.002293220495,9.676200736850001
1.7177026852047242e+18,-0.858966270445,-1.1029289473499997,9.685309295750002
1.7177026854047242e+18,-0.8677380294799999,-1.09150021355,9.676387847950002
1.7177026856047242e+18,-0.8666527862600001,-1.1769275665999999,9.674643974300002
1.7177026858047242e+18,-0.85226021576,-1.1683953095499997,9.666351219099997
1.7177026860047242e+18,-0.87790189363,-1.1703637162000002,9.67898494725
1.7177026862047242e+18,-0.8918229446449999,-1.1983330536499999,9.6653632735
1.7177026864047242e+18,-0.8833761676947369,-1.0900096292105266,9.667275743947368
1.7177026866047242e+18,-0.8943751373150001,-1.11125912475,9.669614433300001
1.7177026868047242e+18,-0.9242604904249999,-1.05612128451,9.65624723045
1.7177026870047242e+18,-0.8942329330400002,-1.0291773148,9.667189475999999
1.7177026872047242e+18,-0.9247918853800001,-1.0549237748,9.6679528885
1.7177026874047242e+18,-0.8992624740650002,-1.0343191222850003,9.667855590799999
1.7177026876047242e+18,-0.9104816437100001,-1.089494384775,9.668072639550001
1.7177026878047242e+18,-0.9594597930450002,-1.08682244125,9.64960853585
1.7177026880047242e+18,-0.84704356385,-1.08603657525,9.654009384199998
1.7177026882047242e+18,-0.9754977577789474,-1.1999599336842106,9.683308193789474
1.7177026884047242e+18,-0.882512306205,-1.1731778641,9.665183647099997
1.7177026886047242e+18,-0.910197235115,-1.1904519423500002,9.654840156550001
1.7177026888047242e+18,-0.93872042083,-1.2334949341499999,9.657354927099998
1.7177026890047242e+18,-0.9294921111950002,-1.20766614535,9.66939738465
1.7177026892047242e+18,-0.92057814789,-1.1607237626000002,9.654742858899999
1.7177026894047242e+18,-0.95444522095,-1.1840677186000002,9.6665458144
1.7177026896047242e+18,-0.937313346825,-1.0760373686950002,9.659690071150001
1.7177026898047242e+18,-0.895834602365,-1.0896590424500001,9.665198616049999
1.7177026900047242e+18,-0.9189705698052633,-1.0691004782842108,9.662036638736842
1.7177026902047242e+18,-0.8796532516550002,-1.03137025451,9.67575915535
1.7177026904047242e+18,-0.79973444364,-1.0111547927299998,9.67998037725
1.7177026906047242e+18,-0.6989415435799999,-0.928077552755,9.661695899899998
1.7177026908047242e+18,-0.576481201175,-1.1044108657749998,9.691087280249999
1.7177026910047242e+18,-0.46931904602000013,-1.1592942352200002,9.69021160135
1.7177026912047242e+18,-0.5928721161,-1.15311209115,9.683917190599999
1.7177026914047242e+18,-0.8434510345500001,-1.2070374527,9.69452263635
1.7177026916047242e+18,-0.7347845077549999,-1.2139830093500001,9.67804190825
1.7177026918047242e+18,-0.7606235383631579,-1.2023707098947367,9.663517769315789
1.7177026920047242e+18,-0.811507461545,-1.2368704147,9.661396522499999
1.7177026922047242e+18,-0.87121829224,-1.1653416595999997,9.680279754699999
1.7177026924047242e+18,-0.88532645418,-1.1933409347499997,9.661748290900002
1.7177026926047242e+18,-0.8899069290249999,-1.0941946105549998,9.659839759899999
1.7177026928047242e+18,-0.9088724899249998,-1.1390787735349999,9.67391798415
1.7177026930047242e+18,-0.8930054855449999,-1.096896492,9.672361221300001
1.7177026932047242e+18,-0.8728723526,-1.06714585865,9.661404006950002
1.7177026934047242e+18,-0.9043369216850001,-1.07374713137,9.675108009400002
1.7177026936047242e+18,-0.862828239435,-1.0267822952399999,9.6609923629
1.7177026938047242e+18,-0.8922078022263157,-1.0489555277894735,9.662343894526316
1.7177026940047242e+18,-0.85350263214,-1.0898910597849998,9.679022369299998
1.7177026942047242e+18,-0.9472077713099999,-1.09676177216,9.8460749816
1.7177026944047242e+18,-0.73176828003,-0.68790948485,9.53663097365
1.7177026946047242e+18,-0.346596748355,-0.500334548955,9.80648231505
1.7177026948047242e+18,-0.37211867524,-0.32817006683500005,9.701041580150001
1.7177026950047242e+18,-0.557201293955,-0.5098098449650001,9.71849528495
1.7177026952047242e+18,-0.5301899642900001,-0.5716761932300002,9.74028996285
1.7177026954047242e+18,-0.6643035736,-0.72144724274,9.7676829987
1.7177026956047242e+18,-0.709280307168421,-0.8511537009789473,9.709180707473685
1.7177026958047242e+18,-0.670156402595,-0.8446111221199999,9.70339169315
1.7177026960047242e+18,-0.74245605469,-0.9148450698799999,9.6852793579
1.7177026962047242e+18,-0.8089702377349999,-1.0588680724650001,9.678229019200002
1.7177026964047242e+18,-0.78519218445,-1.1162512434999998,9.689186233600001
1.7177026966047242e+18,-0.79802799225,-1.1623329163,9.6870756225
1.7177026968047242e+18,-0.820803131105,-1.15457904065,9.673244384800002
1.7177026970047242e+18,-0.791404266355,-1.1615994415,9.6673840713
1.7177026972047242e+18,-0.810601844785,-1.16796869655,9.661965339750001
1.7177026974047242e+18,-0.8152284080157894,-1.2008265524736843,9.685797753631576
1.7177026976047242e+18,-0.82746427917,-1.1452833709,9.67189718635
1.7177026978047242e+18,-0.8050932998599999,-1.1202778702,9.6626688767
1.7177026980047242e+18,-0.8225769424500001,-1.13868209836,9.6847928696
1.7177026982047242e+18,-0.8210950241099999,-1.0805429992150002,9.67653005215
1.7177026984047242e+18,-0.8177869033749999,-1.0529403991,9.682173317
1.7177026986047242e+18,-0.8051980819700001,-1.02542012785,9.66561774445
1.7177026988047242e+18,-0.8274268569900001,-1.0523266754549998,9.666238952699999
1.7177026990047242e+18,-0.8212072906549999,-1.02722387698,9.6560526352
1.7177026992047242e+18,-0.8222637778894737,-1.1268803244210526,9.678321195894735
1.7177026994047242e+18,-0.8274193725650001,-1.14466964715,9.6799953461
1.7177026996047242e+18,-0.8386834487850001,-1.17739160155,9.676986602800001
1.7177026998047242e+18,-0.81217357634,-1.1626322937500002,9.6670622406
1.7177027000047242e+18,-0.8207208023,-1.1676169281,9.666695503300001
1.7177027002047242e+18,-0.8319025497450001,-1.15073952475,9.68498746485
1.7177027004047242e+18,-0.869856124875,-1.1649749222999999,9.722312347450002
1.7177027006047242e+18,-0.938982376045,-0.897211738575,9.680309692449999
1.7177027008047242e+18,-0.66088318634,-0.661556785585,9.677106353700001
1.7177027010047242e+18,-0.8256672266999999,-0.6199870460947369,9.711615118631578
1.7177027012047242e+18,-1.009859985325,-0.5857095107999999,9.699574630799999
1.7177027014047242e+18,-0.9093964004550001,-0.6541172561599999,9.6991255646
1.7177027016047242e+18,-0.888350166295,-0.6574403457599999,9.688624900899999
1.7177027018047242e+18,-0.9876012726299999,-0.74023317718,9.71058423615
1.7177027020047242e+18,-0.953509666475,-0.772693176265,9.687539657650001
1.7177027022047242e+18,-1.0016196213450002,-0.809464210515,9.68747978205
1.7177027024047242e+18,-1.1173364867999998,-0.86490891265,9.6799878616
1.7177027026047242e+18,-1.1032208404600001,-0.87445905304,9.6737009353
1.7177027028047242e+18,-1.0484670698789476,-0.8947919022473685,9.713198667789474
1.7177027030047242e+18,-1.1704909515000002,-0.8167540512099999,9.654368637099997
1.7177027032047242e+18,-1.004516098,-0.787991363525,9.695158813499999
1.7177027034047242e+18,-1.1262953567999998,-0.72941816711,9.665138740550002
1.7177027036047242e+18,-1.0918444977,-0.68111361694,9.6813874512
1.7177027038047242e+18,-1.1361373902,-0.709532020575,9.679052307049998
1.7177027040047242e+18,-1.1081830216000002,-0.65225363159,9.6508734054
1.7177027042047242e+18,-1.1303818589,-0.7774757309,9.68825067895
1.7177027044047242e+18,-1.1697200545500002,-0.7750283203150001,9.6724734877
1.7177027046047242e+18,-1.1532767486500002,-0.8066874847400001,9.67586393735
1.7177027048047242e+18,-1.1696203935263159,-0.8673831096473683,9.67521712468421
1.7177027050047242e+18,-1.1710447997500002,-0.8459134140050001,9.683602844150002
1.7177027052047242e+18,-1.08662036137,-0.705273376465,9.663245178150001
1.7177027054047242e+18,-1.0195523299800002,-0.8207133178799999,9.72402628325
1.7177027056047242e+18,-1.0120304718150002,-0.6360198898249999,9.689163780250002
1.7177027058047242e+18,-1.0887983321999997,-0.67401088714,9.67994295515
1.7177027060047242e+18,-1.0701096953999998,-0.560105255125,9.676672256449999
1.7177027062047242e+18,-1.0958561554150001,-0.655060295115,9.69956714635
1.7177027064047242e+18,-1.116183883705,-0.659027046185,9.72966206355
1.7177027066047242e+18,-0.7943271356157895,-0.6569128899947368,9.735336841684212
1.7177027068047242e+18,-0.5135370941249999,-0.2557806015019,9.67429220575
1.7177027070047242e+18,-0.2522105255135,-0.422032379158,9.792538810699998
1.7177027072047242e+18,0.58289536286,-1.134468360895,9.691289360049998
1.7177027074047242e+18,-0.6633755035404999,-1.14323263545,9.7209950867
1.7177027076047242e+18,-0.6167848891405001,-1.2065359955050001,9.71426657855
1.7177027078047242e+18,-0.7673343200649999,-0.8219931564299999,9.617492820699999
1.7177027080047242e+18,-0.7168592834199999,-0.8613987121900001,9.664719612149998
1.7177027082047242e+18,-0.7063361663850001,-1.3549149399,9.690668151849998
1.7177027084047242e+18,-0.773985226268421,-1.5278333805263158,9.656104238368423
1.7177027086047242e+18,-0.7975489883349999,-1.5653997345500001,9.6239219512
1.7177027088047242e+18,-0.75669893646,-1.5743885422000001,9.620187217699998
1.7177027090047242e+18,-0.77509568023,-1.5912210387499999,9.61639260865
1.7177027092047242e+18,-0.77341168213,-1.60384728235,9.618368499599999
1.7177027094047242e+18,-0.76822496794,-1.5501464538,9.618435859649999
1.7177027096047242e+18,-0.77472145844,-1.5378195876,9.626728614850002
1.7177027098047242e+18,-0.7373965759250001,-1.48366969295,9.62507455445
1.7177027100047242e+18,-0.745262718205,-1.45568538675,9.631107009900001
1.7177027102047242e+18,-0.7300318908736841,-1.4369723269473682,9.611000663315789
1.7177027104047242e+18,-0.7407346344,-1.4242732086000003,9.624932350250003
1.7177027106047242e+18,-0.7454049224699999,-1.46739852905,9.620104888850001
1.7177027108047242e+18,-0.7615413665749999,-1.5500566406999998,9.6316608581
1.7177027110047242e+18,-0.759572959905,-1.5534770279,9.6158537293
1.7177027112047242e+18,-0.777311073295,-1.6052094498999998,9.6177098693
1.7177027114047242e+18,-0.773254508975,-1.6090339966000002,9.61080921935
1.7177027116047242e+18,-0.767379226685,-1.5976651383000002,9.617028785699997
1.7177027118047242e+18,-0.7733518066449999,-1.6208968277499998,9.613698211700001
1.7177027120047242e+18,-0.7670680317105263,-1.5640816858947368,9.612954495052632
1.7177027122047242e+18,-0.7718474350050001,-1.5668292618500002,9.61747785195
1.7177027124047242e+18,-0.746205757135,-1.51375712575,9.624460830650001
1.7177027126047242e+18,-0.7513625335749999,-1.4942751388,9.6301265489
1.7177027128047242e+18,-0.7553667068500001,-1.4354624405499998,9.640866714500001
1.7177027130047242e+18,-0.726574081425,-1.3582904205000002,9.627477058450001
1.7177027132047242e+18,-0.6698420562749999,-1.3867088241999999,9.616894065799999
1.7177027134047242e+18,-0.758465263365,-1.400884346,9.6427228547
1.7177027136047242e+18,-0.7892712020949999,-1.462488739,9.633921157700001
1.7177027138047242e+18,-0.6842744124578948,-1.4755605035789474,9.631681341736842
1.7177027140047242e+18,-0.76811270141,-1.485952446,9.618712783750002
1.7177027142047242e+18,-0.7527621231099999,-1.52060538475,9.6368101501
1.7177027144047242e+18,-0.7453974380549999,-1.5299384766000002,9.602157211249999
1.7177027146047242e+18,-0.7528444518899999,-1.5593523101,9.6059368514
1.7177027148047242e+18,-0.703087921145,-1.6443904724,9.6493840027
1.7177027150047242e+18,-0.7800728302050001,-1.5433431015,9.610270339950002
1.7177027152047242e+18,-0.7283029861450001,-1.5474969635,9.6316309204
1.7177027154047242e+18,-0.746100975045,-1.52065777585,9.61704375455
1.7177027156047242e+18,-0.73341485596,-1.4706617430999998,9.62887664795
1.7177027158047242e+18,-0.7195142886368421,-1.4504758252631578,9.616799131736842
1.7177027160047242e+18,-0.731813186655,-1.4611864471000002,9.617724838300001
1.7177027162047242e+18,-0.727853919985,-1.4664330368499998,9.60994102475
1.7177027164047242e+18,-0.7886350249950002,-1.67339266205,9.613091972349999
1.7177027166047242e+18,-0.99510067744,-1.6719406815,9.5706477355
1.7177027168047242e+18,-0.9361607436750001,-1.7661846999999997,9.57645565795
1.7177027170047242e+18,-0.881666564945,-1.7736092605500002,9.581964202950001
1.7177027172047242e+18,-0.8990978164550001,-1.7240024184,9.580332595850003
1.7177027174047242e+18,-0.865395401,-1.7283658447,9.59020456705
1.7177027176047242e+18,-0.8682418502157895,-1.6832496642631578,9.587105616526317
1.7177027178047242e+18,-0.837298828125,-1.6255596313500003,9.590294380200001
1.7177027180047242e+18,-0.8582327957099999,-1.6209716721499998,9.6052482833
1.7177027182047242e+18,-0.8457487564200001,-1.5835270386,9.59391684715
1.7177027184047242e+18,-0.83247885132,-1.54104537965,9.58549685665
1.7177027186047242e+18,-0.8617953872699999,-1.5588807908000002,9.589066932699998
1.7177027188047242e+18,-0.850037338255,-1.63715302275,9.599447845499999
1.7177027190047242e+18,-0.863359634405,-1.63847028345,9.589051963900001
1.7177027192047242e+18,-0.8674236831599998,-1.7216747588500003,9.598789215099998
1.7177027194047242e+18,-0.8661619648157894,-1.7136207179473686,9.580133273421053
1.7177027196047242e+18,-0.8556282119650002,-1.7104630735999997,9.58504030605
1.7177027198047242e+18,-0.8805289306649999,-1.72436915585,9.5859384385
1.7177027200047242e+18,-0.859355461125,-1.7284332046,9.587352996849999
1.7177027202047242e+18,-0.855740478525,-1.6802409210499998,9.585908500650001
1.7177027204047242e+18,-0.8479566650400001,-1.6605194320999999,9.5914993744
1.7177027206047242e+18,-0.84251548006,-1.6346831589000002,9.597801269650002
1.7177027208047242e+18,-0.828931228635,-1.5814463654500002,9.6035118943
1.7177027210047242e+18,-0.8250018997249999,-1.5354320525000003,9.592464866600002
1.7177027212047242e+18,-0.8105644226105263,-1.5468911180526317,9.590682389210528
1.7177027214047242e+18,-0.82357985688,-1.5664475556500002,9.597202514650002
1.7177027216047242e+18,-0.8377628631699998,-1.6183820572000003,9.60122165685
1.7177027218047242e+18,-0.8305403823849999,-1.6874484329999997,9.603983413799998
1.7177027220047242e+18,-0.8294850769150001,-1.6902775497499998,9.589912673950002
1.7177027222047242e+18,-0.837590721135,-1.7017362212999998,9.597651580800001
1.7177027224047242e+18,-0.8423882446299998,-1.7199982452,9.57652301785
1.7177027226047242e+18,-0.83530048371,-1.6983008651499998,9.5886028977
1.7177027228047242e+18,-0.832883010865,-1.70396658325,9.590900619550002
1.7177027230047242e+18,-0.8315602352684209,-1.6881263653157894,9.590776929368422
1.7177027232047242e+18,-0.8229361953750001,-1.6470998383000002,9.596491493150001
1.7177027234047242e+18,-0.8171806640649999,-1.6259338531999998,9.5972025147
1.7177027236047242e+18,-0.80950163268,-1.5746504974,9.604754310599997
1.7177027238047242e+18,-0.8077951812849999,-1.5661182404000002,9.58551182555
1.7177027240047242e+18,-0.807106613155,-1.5727868728999999,9.585631576549996
1.7177027242047242e+18,-0.813116615295,-1.6353193359999998,9.6117597427
1.7177027244047242e+18,-0.8252114639350001,-1.68450704945,9.59322827915
1.7177027246047242e+18,-0.8279657363850002,-1.6857344971,9.5923226624
1.7177027248047242e+18,-0.8427790109894738,-1.7068532121052629,9.585537824157896
1.7177027250047242e+18,-0.8217686233449999,-1.7042958984999999,9.5865371933
1.7177027252047242e+18,-0.8328381042499998,-1.6988996201,9.588355911249998
1.7177027254047242e+18,-0.8322618026699999,-1.7207242354999999,9.590668602000001
1.7177027256047242e+18,-0.82741188813,-1.6702192611500002,9.588333458000001
1.7177027258047242e+18,-0.8279732208349999,-1.66581841275,9.5987892151
1.7177027260047242e+18,-0.81444136047,-1.63906155385,9.6035792542
1.7177027262047242e+18,-0.80338684845,-1.5751968612499998,9.60538300335
1.7177027264047242e+18,-0.79838724518,-1.5522121581500001,9.606797561650001
1.7177027266047242e+18,-0.78102335357,-1.4763199767499997,9.60878842165
1.7177027268047242e+18,-0.7845264635578947,-1.4843448678421054,9.611496999631578
1.7177027270047242e+18,-0.783403404245,-1.5060032502,9.617859558099997
1.7177027272047242e+18,-0.780634162895,-1.5224914627500001,9.61224623115
1.7177027274047242e+18,-0.79827497864,-1.5573464813500002,9.6035268632
1.7177027276047242e+18,-0.799345253,-1.59322686755,9.6001513824
1.7177027278047242e+18,-0.810107872,-1.6397351532000002,9.6070744859
1.7177027280047242e+18,-0.8108787689250001,-1.6772172088999997,9.597838691749999
1.7177027282047242e+18,-0.8112904128999998,-1.6839457167999998,9.59149937435
1.7177027284047242e+18,-0.82780856323,-1.6989894333000002,9.594874855
1.7177027286047242e+18,-0.8184742897473684,-1.7064671726315792,9.584773623947369
1.7177027288047242e+18,-0.819957389835,-1.6930991819999999,9.5937447051
1.7177027290047242e+18,-0.819575683605,-1.6867374115,9.601356376649997
1.7177027292047242e+18,-0.8018749923699999,-1.6453784179,9.59481497955
1.7177027294047242e+18,-0.806874595645,-1.6317642288999998,9.607201721100001
1.7177027296047242e+18,-0.794600120545,-1.5982638932,9.605053688000002
1.7177027298047242e+18,-0.78421172334,-1.5454237748000001,9.6116325073
1.7177027300047242e+18,-0.77671980285,-1.507530075,9.5966037598
1.7177027302047242e+18,-0.7669151916500001,-1.4835349730949998,9.67373087265
1.7177027304047242e+18,-0.5920661605052631,-1.3180643343105265,9.66029552268421
1.7177027306047242e+18,-0.6529796218800001,-0.91795859523,9.69146898645
1.7177027308047242e+18,0.1295181655812,-2.31165039835,9.513646270799999
1.7177027310047242e+18,0.025484504700500003,-0.7979082412455001,9.698826187200002
1.7177027312047242e+18,-0.36342176057250003,-1.83159118646,9.8879953076
1.7177027314047242e+18,1.0289752350055,-1.3704077225049998,11.247198828999998
1.7177027316047242e+18,-0.40860530093,2.22700142665,11.09828849
1.7177027318047242e+18,-0.31848520656999996,1.7579892426749997,9.418743622000001
1.7177027320047242e+18,-0.112288993836,1.5355218658499998,7.73883201595
1.7177027322047242e+18,0.18778843930432104,1.8242643175263156,7.501382374
1.7177027324047242e+18,0.19145187377904999,2.3221435776000003,8.2421528549
1.7177027326047242e+18,-0.3374807052795,1.33315768429,9.3305320588
1.7177027328047242e+18,-0.5339471511905,0.1775083694465,10.23037831815
1.7177027330047242e+18,-0.27345135500949996,-0.48653324890999994,11.781363029
1.7177027332047242e+18,-0.6147266693100001,-0.10925031280799997,11.469868286499999
1.7177027334047242e+18,-0.6400315475350001,0.10176587676564999,10.608626746999999
1.7177027336047242e+18,-0.4191508712459999,0.43030268096499996,9.6937592237
1.7177027338047242e+18,1.3252616043085,2.4055276793750004,6.7119374541
1.7177027340047242e+18,-0.39688782535789463,1.6070659837999999,8.610000674578947
1.7177027342047242e+18,0.018351837142000005,1.75782458495,8.22646547695
1.7177027344047242e+18,-0.207827819815,0.5229674835034999,10.100538321850001
1.7177027346047242e+18,-0.5143154754154999,-0.06304888915800001,11.532924659999999
1.7177027348047242e+18,-0.6804100799694999,0.14741345214949997,11.463805892500002
1.7177027350047242e+18,-0.662477371223,0.1715432739228,10.548324646000001
1.7177027352047242e+18,-0.320064422625,0.569745208775,9.7633120884
1.7177027354047242e+18,0.07487429811499999,1.9969897385,8.1839913024
1.7177027356047242e+18,-0.5451513519015001,1.7220265273500002,7.93831468955
1.7177027358047242e+18,-0.5014887277684211,1.6260134245263156,8.256766807157895
1.7177027360047242e+18,-0.5118456116014001,0.37800892635800004,9.7550866925
1.7177027362047242e+18,-0.45984374999775,-0.43857298281300006,10.770919257749998
1.7177027364047242e+18,-0.4955744476344999,-0.967647766085,11.891758461
1.7177027366047242e+18,-0.6135516128774999,-0.8076454925650001,10.8091123345
1.7177027368047242e+18,-0.735750000045,-0.4438120880155001,9.861709968550002
1.7177027370047242e+18,-0.8703126754499999,0.6740183715850001,9.5048595429
1.7177027372047242e+18,-0.24520509335650004,1.76478511046,7.939744216799999
1.7177027374047242e+18,-0.5835165710179999,1.565931129385,8.319407203650002
1.7177027376047242e+18,-0.5640420684599998,1.2464654617499997,8.651611381550001
1.7177027378047242e+18,-0.42844063209947364,0.3481286942283158,9.642230457210525
1.7177027380047242e+18,-0.60363473509,-0.42001158139844996,10.48420548135
1.7177027382047242e+18,-0.650861526521,-0.8652531967549999,11.2652363198
1.7177027384047242e+18,-0.3630400543489999,-0.5331014099050001,11.387898742500001
1.7177027386047242e+18,-0.774796302805,-0.27020310973,9.9621660684
1.7177027388047242e+18,-0.6646029510860001,0.3584071884175,9.703286911200001
1.7177027390047242e+18,-0.20551512911499997,1.1182196502750001,9.26733348125
1.7177027392047242e+18,-0.368945274328,1.888959388665,7.673874595549999
1.7177027394047242e+18,-0.48832202911,1.28724066928,8.78105470285
1.7177027396047242e+18,-0.8051913853894737,1.0630026324947368,9.153835553578947
1.7177027398047242e+18,-0.76425821685,0.13323793029749997,9.8105164266
1.7177027400047242e+18,-0.8916582870299999,-0.42284818266699997,10.4554353105
1.7177027402047242e+18,-0.9271943893585,-0.79860429382,10.9574538575
1.7177027404047242e+18,-1.0505528641250002,-0.5701568527249999,11.187667625500001
1.7177027406047242e+18,-1.06459366597,-0.32424822235,10.17697686785
1.7177027408047242e+18,-0.8315732345850002,0.19409387969950004,9.9153060148
1.7177027410047242e+18,-0.3893777847215,1.4416445847399997,8.3503104401
1.7177027412047242e+18,-0.728542488122,1.629369209305,7.421881118749999
1.7177027414047242e+18,-0.9310953562273686,1.5139517212105262,9.103934061105264
1.7177027416047242e+18,-0.5658907241910001,2.4722813644999997,9.549070106399999
1.7177027418047242e+18,-0.18986517335299993,2.2549258574999995,9.348659362750002
1.7177027420047242e+18,-0.590035514817,2.0074754334,10.05807163265
1.7177027422047242e+18,0.6272032241949999,0.6766304397520001,10.502699523949998
1.7177027424047242e+18,0.4074751510485,-0.8130043488000002,10.154688217250001
1.7177027426047242e+18,0.34358800505750003,-1.74617131804,9.688924278250001
1.7177027428047242e+18,0.307580383298,-0.956555831925,9.730417991700001
1.7177027430047242e+18,-0.30404772950299996,-0.84252296449,9.772166175699999
1.7177027432047242e+18,-0.11938069393331581,-1.5959181133157894,9.645287258631578
1.7177027434047242e+18,-0.1345327377375,-1.7904567261500002,9.670085952850002
1.7177027436047242e+18,0.0945359115665,-0.958673927275,9.715157226599999
1.7177027438047242e+18,0.13820011138550004,-0.7146738281249999,9.751396865750001
1.7177027440047242e+18,-0.12828323363695,-1.05663771045,9.7027330627
1.7177027442047242e+18,0.141216339111,-1.2240121537,9.68311635595
1.7177027444047242e+18,0.11496093749700001,-0.7854017486549999,9.7532455215
1.7177027446047242e+18,0.091826545712,-0.6749314727849999,9.72929532625
1.7177027448047242e+18,-0.550989212045,-1.1106903076,9.68673882295
1.7177027450047242e+18,-0.38166684602105266,-0.9526426536210526,9.734241750631577
1.7177027452047242e+18,-0.44783123016,-0.9005123748950001,9.7246549759
1.7177027454047242e+18,-0.30273046875009996,-1.1596834258400002,9.71616762535
1.7177027456047242e+18,0.05386548615200001,-1.1879820785500002,9.62904130555
1.7177027458047242e+18,-0.34579591369,-1.2487856368999999,9.71084619135
1.7177027460047242e+18,-0.61480151367,-1.3671295396,9.7006449051
1.7177027462047242e+18,-0.755613693225,-1.39982155605,9.65245262145
1.7177027464047242e+18,-0.454350173935,-1.5238087234499997,9.649548660250002
1.7177027466047242e+18,-0.5040318603499999,-1.3604534226500002,9.64768503575
1.7177027468047242e+18,-0.532631860036842,-1.3523903214210526,9.562942705631578
1.7177027470047242e+18,-0.5422623596200001,-1.4511348495500003,9.664689674300002
1.7177027472047242e+18,-0.61941941071,-1.6560437392,9.788122993650001
1.7177027474047242e+18,-0.3822076950065,-1.2110266571800001,9.5310475844
1.7177027476047242e+18,-0.470247116085,-1.0114841079399999,9.750334075900001
1.7177027478047242e+18,-0.26107958222000005,-0.9557774505350001,9.70238129435
1.7177027480047242e+18,-0.28296407316999994,-0.9930274886899998,9.72050859835
1.7177027482047242e+18,-0.45631858062999997,-1.0737995223549999,9.67245103455
1.7177027484047242e+18,-0.48227460479000017,-1.1371777267499998,9.658163246149998
1.7177027486047242e+18,-0.609412719725,-1.63049935915,9.71614517215
1.7177027488047242e+18,-0.6213815146999999,-1.481563809,9.624299324421052
1.7177027490047242e+18,-0.617742897035,-1.4825844498,9.6249847413
1.7177027492047242e+18,-0.6161337432849999,-1.4403123551,9.6095069274
1.7177027494047242e+18,-0.6012995910700001,-1.4810800781000002,9.624790145750001
1.7177027496047242e+18,-0.64033840943,-1.5561340027,9.6265190506
1.7177027498047242e+18,-0.6544465713400001,-1.5822022934,9.616070778
1.7177027500047242e+18,-0.6652615814199999,-1.64699505615,9.62176643375
1.7177027502047242e+18,-0.66115262604,-1.6660354614000004,9.6037289429
1.7177027504047242e+18,-0.685327354425,-1.67584007265,9.6031002502
1.7177027506047242e+18,-0.6885444801578947,-1.7018819708947368,9.601184234526317
1.7177027508047242e+18,-0.683082023615,-1.6875981217000002,9.596820808599999
1.7177027510047242e+18,-0.695236747745,-1.7162036361,9.624962287950002
1.7177027512047242e+18,-0.67975893403,-1.6242348862,9.604537261950002
1.7177027514047242e+18,-0.668382591245,-1.58850418855,9.61547950745
1.7177027516047242e+18,-0.6429654464800001,-1.5367717666999998,9.614768486
1.7177027518047242e+18,-0.6546486511149998,-1.5158153456499999,9.633120323250001
1.7177027520047242e+18,-0.65165487671,-1.4694268112000002,9.6065580597
1.7177027522047242e+18,-0.6518494720399999,-1.47655947885,9.621294914199998
1.7177027524047242e+18,-0.6434409051157894,-1.510540394,9.606872405999999
1.7177027526047242e+18,-0.68936146545,-1.5992518385999999,9.626055015550003
1.7177027528047242e+18,-0.689608451855,-1.66533940885,9.61935644515
1.7177027530047242e+18,-0.6893914031949999,-1.6780629501,9.60295056145
1.7177027532047242e+18,-0.6968533859200001,-1.7013320617499996,9.6094021453
1.7177027534047242e+18,-0.7066954193149999,-1.68548751075,9.5967010576
1.7177027536047242e+18,-0.692302848815,-1.69810626985,9.5988266373
1.7177027538047242e+18,-0.6981556777900001,-1.6962650985499999,9.607890289300002
1.7177027540047242e+18,-0.7036193161000001,-1.6778758393,9.61652732855
1.7177027542047242e+18,-0.6877724015105264,-1.6240753494736841,9.608723819052631
1.7177027544047242e+18,-0.67003665161,-1.57013738255,9.617043754650002
1.7177027546047242e+18,-0.65038252257,-1.519580017,9.61456640625
1.7177027548047242e+18,-0.6607409820499999,-1.50188681035,9.617462882949999
1.7177027550047242e+18,-0.6620208206149999,-1.4975383528500001,9.61003083805
1.7177027552047242e+18,-0.661601692195,-1.5217505035499999,9.62805336
1.7177027554047242e+18,-0.6878421249400001,-1.5250586243,9.59790605165
1.7177027556047242e+18,-0.6646628265450001,-1.6365392990500003,9.63507376105
1.7177027558047242e+18,-0.721192771905,-1.6735947418,9.61223874655
1.7177027560047242e+18,-0.686559135031579,-1.6843132421052631,9.608219604473685
1.7177027562047242e+18,-0.7041956176699999,-1.6835490418000003,9.595608329800001
1.7177027564047242e+18,-0.69962262726,-1.6871565399000001,9.599567596400002
1.7177027566047242e+18,-0.7135212249800001,-1.7238527297999997,9.599859489450001
1.7177027568047242e+18,-0.7000193023650001,-1.7005911025,9.61469364175
1.7177027570047242e+18,-0.696913261425,-1.6641344147000001,9.6023892288
1.7177027572047242e+18,-0.6724690933299999,-1.5981815644,9.61693148805
1.7177027574047242e+18,-0.68645750428,-1.57323593905,9.625770607049999
1.7177027576047242e+18,-0.66238755798,-1.4836547242000002,9.6320126267
1.7177027578047242e+18,-0.6242492354421053,-1.417780657368421,9.63371395726316
1.7177027580047242e+18,-0.638804100035,-1.3708642731,9.6614788513
1.7177027582047242e+18,-0.64022614288,-1.3251343689000001,9.66236949925
1.7177027584047242e+18,-0.61529548645,-1.24892035685,9.67052753445
1.7177027586047242e+18,-0.587662948605,-1.16919614415,9.6478122712
1.7177027588047242e+18,-0.61224183656,-1.17482444,9.6981600723
1.7177027590047242e+18,-0.6083574142399999,-1.11875852967,9.663567009000001
1.7177027592047242e+18,-0.6060522079450001,-1.09009313969,9.6339810333
1.7177027594047242e+18,-0.61878323365,-1.2375814362500002,9.6754373245
1.7177027596047242e+18,-0.6523434448050001,-1.2923001479000003,9.65434618385
1.7177027598047242e+18,-0.6653899985894737,-1.4163310401052633,9.659011350789473
1.7177027600047242e+18,-0.675649978645,-1.4602508927000002,9.634347770749999
1.7177027602047242e+18,-0.694376037595,-1.558199707,9.63737896735
1.7177027604047242e+18,-0.7046746215799999,-1.5846122818500001,9.618750206
1.7177027606047242e+18,-0.7206089858999999,-1.6502433013500002,9.618158935599999
1.7177027608047242e+18,-0.7054380340599999,-1.6578175506500004,9.597015403800002
1.7177027610047242e+18,-0.73243439483,-1.71560488125,9.611131050000001
1.7177027612047242e+18,-0.7186405792299999,-1.7019083634500003,9.590893135149999
1.7177027614047242e+18,-0.7234605560350001,-1.6989445267,9.5914694367
1.7177027616047242e+18,-0.715228464231579,-1.705458743368421,9.588500085052633
1.7177027618047242e+18,-0.7327038345399999,-1.7280365296500002,9.597322265549998
1.7177027620047242e+18,-0.7212301940950001,-1.7141529007999998,9.584778350849998
1.7177027622047242e+18,-0.7277266845749999,-1.7139133987999997,9.60331729895
1.7177027624047242e+18,-0.72013746643,-1.6941993942,9.59706779475
1.7177027626047242e+18,-0.718999832145,-1.67836232755,9.614656219450001
1.7177027628047242e+18,-0.712870079035,-1.5992668075999998,9.60964164735
1.7177027630047242e+18,-0.69927085877,-1.5521373138,9.6156516494
1.7177027632047242e+18,-0.684616333005,-1.51842741395,9.607568458500001
1.7177027634047242e+18,-0.6904431634263158,-1.4934995149999999,9.59555909
1.7177027636047242e+18,-0.69495233918,-1.5581548004,9.6241240311
1.7177027638047242e+18,-0.7092850341749999,-1.56255564885,9.60355680085
1.7177027640047242e+18,-0.7097490692200001,-1.6149616699,9.6067676239
1.7177027642047242e+18,-0.7298747177199999,-1.67144670875,9.607358894350002
1.7177027644047242e+18,-0.71830377961,-1.6747174073,9.594410819949998
1.7177027646047242e+18,-0.7323894882249999,-1.6984580383499999,9.598048255950001
1.7177027648047242e+18,-0.73859408569,-1.7264647978999998,9.59248732
1.7177027650047242e+18,-0.7286248169000002,-1.71304520415,9.60076510625
1.7177027652047242e+18,-0.7282198695210526,-1.6987069943684212,9.607274202052633
1.7177027654047242e+18,-0.7296950912500001,-1.6679065704,9.611557662900001
1.7177027656047242e+18,-0.7091203765899999,-1.5782355422,9.61200672915
1.7177027658047242e+18,-0.702773574825,-1.52666777805,9.621482025149998
1.7177027660047242e+18,-0.68430198669,-1.4896871795500002,9.622567268400001
1.7177027662047242e+18,-0.6679035873350001,-1.43426493075,9.60220960235
1.7177027664047242e+18,-0.69423383331,-1.4788497162999998,9.63761098485
1.7177027666047242e+18,-0.699308280945,-1.5116016083,9.630373535150001
1.7177027668047242e+18,-0.6942637710599999,-1.51336045075,9.612373466500001
1.7177027670047242e+18,-0.7068301391631578,-1.5755131771578947,9.612442402105263
1.7177027672047242e+18,-0.71815409089,-1.5998955002000002,9.605442878849999
1.7177027674047242e+18,-0.7372094650200001,-1.6714616776500002,9.61578636935
1.7177027676047242e+18,-0.7213798827999999,-1.68332450865,9.59810813135
1.7177027678047242e+18,-0.7406373367400001,-1.7031133575000001,9.597322265699999
1.7177027680047242e+18,-0.7343953170849999,-1.7171167374,9.59573556525
1.7177027682047242e+18,-0.73315290071,-1.7109271087499998,9.601565940850001
1.7177027684047242e+18,-0.740442741395,-1.71264104465,9.597861145000001
1.7177027686047242e+18,-0.728003608695,-1.65538510895,9.6080324936
1.7177027688047242e+18,-0.7266599554789472,-1.6169139260526315,9.612796927894736
1.7177027690047242e+18,-0.70730914307,-1.5818580092999999,9.62328577435
1.7177027692047242e+18,-0.7001390533449999,-1.51080077365,9.63573239135
1.7177027694047242e+18,-0.6760167160099999,-1.4798750840000001,9.627986000000002
1.7177027696047242e+18,-0.67152605439,-1.3016931151499995,9.6096042251
1.7177027698047242e+18,-0.6548133087199999,-1.34796189885,9.6407769012
1.7177027700047242e+18,-0.6132372665300001,-1.35082095335,9.657983619700001
1.7177027702047242e+18,-0.674055793755,-1.4202166443499997,9.6195959472
1.7177027704047242e+18,-0.5626125411949999,-1.4242507553000003,9.698811218249999
1.7177027706047242e+18,-0.51142648316,-1.20456758875,9.68335585775
1.7177027708047242e+18,-0.5123450991947368,-1.285676422157895,9.658845905473685
1.7177027710047242e+18,-0.41293130492999996,-1.19702327723,9.568784111
1.7177027712047242e+18,-0.43538461304408005,-1.7396823119499998,9.73471405785
1.7177027714047242e+18,-0.8955427093650001,-1.5938929824999999,9.605390487649998
1.7177027716047242e+18,-0.624613609315,-1.63149478915,9.606924797049999
1.7177027718047242e+18,-0.7018529892,-1.59934165185,9.6293855897
1.7177027720047242e+18,-0.597527435295,-1.4403572617,9.6337041093
1.7177027722047242e+18,-0.7091877365149999,-0.7986342316,9.6308974456
1.7177027724047242e+18,-0.51545310974,-0.7672070846600001,9.7238242035
1.7177027726047242e+18,-0.2184194785610526,-1.198242452473684,9.735888326473685
1.7177027728047242e+18,-0.133859138491,-1.3294229508500002,9.6728177719
1.7177027730047242e+18,0.111712692274,-1.6542624436,9.6589416274
1.7177027732047242e+18,0.08693920899650001,-1.5630720748,9.64564178465
1.7177027734047242e+18,-0.4277355194,-1.4740671617,9.6856685485
1.7177027736047242e+18,-0.9359137573249999,-1.4865062942000002,9.62211071775
1.7177027738047242e+18,-1.29952262878,-1.3207185515500002,9.5622501983
1.7177027740047242e+18,-1.5662454758000002,-1.4220952377000002,9.533225555400001
1.7177027742047242e+18,-1.1341764678649997,-1.5509173509,9.53093531795
1.7177027744047242e+18,-0.8696757105368421,-1.946977555157895,9.569072064789474
1.7177027746047242e+18,-0.811889167785,-1.7999769287000003,9.5580514297
1.7177027748047242e+18,-1.2399165801499998,-1.7934505003999999,9.562010696449999
1.7177027750047242e+18,-1.50448390965,-1.8222880325,9.473866493150002
1.7177027752047242e+18,-1.326518989515,-1.6661552125000003,9.52483550265
1.7177027754047242e+18,-1.3308973846,-1.85350561525,9.4907813185
1.7177027756047242e+18,-0.92921518704,-1.6529376984500002,9.585788749650002
1.7177027758047242e+18,-0.559042465215,-1.9268979950000003,9.57366396335
1.7177027760047242e+18,-0.48300807953349995,-1.89960974115,9.554107131950001
1.7177027762047242e+18,-0.4174897204036842,-1.9493253044210526,9.600293980736842
1.7177027764047242e+18,-0.7731572113099999,-1.6902925187000002,9.534782318100001
1.7177027766047242e+18,-0.598934509265,-1.78309952545,9.55674913785
1.7177027768047242e+18,-0.7250622253350001,-1.9858379288499997,9.5453802795
1.7177027770047242e+18,-0.669116065985,-2.13045968635,9.550791526850002
1.7177027772047242e+18,-0.928945747395,-2.0504510651,9.504141036950001
1.7177027774047242e+18,-0.8315732346000001,-2.0190987625,9.5473711396
1.7177027776047242e+18,-0.7216044158950001,-2.1329819411999997,9.5033701401
1.7177027778047242e+18,-0.708050102235,-2.18919754035,9.5139007416
1.7177027780047242e+18,-0.8519809281210526,-2.0181978726842105,9.516877971368421
1.7177027782047242e+18,-0.83196990967,-2.0825892333500002,9.5168720627
1.7177027784047242e+18,-0.9443711701000002,-1.8764229583499996,9.50032397445
1.7177027786047242e+18,-1.0395133208449998,-1.8356627197000006,9.5139980393
1.7177027788047242e+18,-0.811058395385,-1.9150127105499997,9.529692901550003
1.7177027790047242e+18,-0.853023628285,-1.95012968435,9.523742774950001
1.7177027792047242e+18,-0.602482131955,-2.3059622268999997,9.519259597700001
1.7177027794047242e+18,-0.6579792251600001,-1.9808458099500001,9.617013816850001
1.7177027796047242e+18,-0.2046843566870699,-1.2392953720000002,9.604567199650003
1.7177027798047242e+18,0.20527050620257895,-1.3420775564473686,9.706517823947369
1.7177027800047242e+18,-0.2607427825945,-1.5298112410999998,9.71648945625
1.7177027802047242e+18,-0.32802037810999995,-1.5923362198000002,9.546667602500001
1.7177027804047242e+18,-0.39653290557849996,-1.39342236325,9.6778024063
1.7177027806047242e+18,-0.2835927658145,-1.7085021514,9.594201255799998
1.7177027808047242e+18,-0.44194097900499996,-1.2122391357300002,9.65544639595
1.7177027810047242e+18,-0.41456291197499995,-1.5124772872999999,9.7480139009
1.7177027812047242e+18,-0.583965637211,-1.3855487367000001,9.5072545625
1.7177027814047242e+18,-0.491787322996,-1.3959446182,9.655753257650002
1.7177027816047242e+18,-0.19445352654157894,-1.7244061841052631,9.718327476105264
1.7177027818047242e+18,-0.5613401870900001,-1.5811769257000001,9.58369310755
1.7177027820047242e+18,-0.759363395695,-1.8192643203999999,9.6209356613
1.7177027822047242e+18,-0.8180862808299999,-1.8067353745,9.564615280199998
1.7177027824047242e+18,-0.7855813751249999,-1.8043553237499999,9.5734394302
1.7177027826047242e+18,-0.82486717987,-1.7588125305000002,9.57251136015
1.7177027828047242e+18,-0.8192014617850001,-1.7099316786999998,9.570685157800002
1.7177027830047242e+18,-0.775799217235,-1.7315317613,9.5575873947
1.7177027832047242e+18,-0.8124729537900001,-1.6897162172000002,9.5595258637
1.7177027834047242e+18,-0.80807210542,-1.7853373717999996,9.56971218105
1.7177027836047242e+18,-0.8150314491684212,-1.8355776334736842,9.562170626947367
1.7177027838047242e+18,-0.8364381179799999,-1.8880163498000002,9.565258941600002
1.7177027840047242e+18,-0.83895288849,-1.9017577743499998,9.5459865188
1.7177027842047242e+18,-0.8311166839549999,-1.8996172257000001,9.54648049165
1.7177027844047242e+18,-0.8472157058600001,-1.9288514329500004,9.559817756649998
1.7177027846047242e+18,-0.843241470345,-1.8763481138499998,9.5537478791
1.7177027848047242e+18,-0.83297282409,-1.8446590118500001,9.553493408149999
1.7177027850047242e+18,-0.828534553535,-1.8330132294,9.5647799377
1.7177027852047242e+18,-0.8294102325450001,-1.7975070649499998,9.5693828658
1.7177027854047242e+18,-0.8249581748578947,-1.7817999911052629,9.562611814789474
1.7177027856047242e+18,-0.8160579986600001,-1.7091832353,9.547236419750002
1.7177027858047242e+18,-0.82496447754,-1.7425862733,9.54929463955
1.7177027860047242e+18,-0.830211067195,-1.829315918,9.568043151800001
1.7177027862047242e+18,-0.832703384395,-1.8537226639499997,9.56403897855
1.7177027864047242e+18,-0.8568556594800001,-1.9069145509000003,9.556764106700001
1.7177027866047242e+18,-0.8505986709550001,-1.9075432434499995,9.543082557750001
1.7177027868047242e+18,-0.843039390565,-1.8969078597,9.5489728089
1.7177027870047242e+18,-0.85313589478,-1.91347840115,9.560955391
1.7177027872047242e+18,-0.8578424232894737,-1.8883310901578947,9.552330563210525
1.7177027874047242e+18,-0.841123374945,-1.8091528474,9.559683036749998
1.7177027876047242e+18,-0.8436905365099999,-1.7880841599999997,9.56463773345
1.7177027878047242e+18,-0.8235199813899999,-1.7627643127500001,9.57606646725
1.7177027880047242e+18,-0.8580905914100001,-1.6762891388,9.674584098950001
1.7177027882047242e+18,-0.81771954345,-1.58072785955,9.446668052749999
1.7177027884047242e+18,-0.872325988815,-1.7284706268499999,9.553044342149999
1.7177027886047242e+18,-0.5861735458499999,-1.7597630539,9.58533968355
1.7177027888047242e+18,-0.8046292648,-1.9046093445,9.5966336974
1.7177027890047242e+18,-0.9032768891999999,-1.8869208646842106,9.562470004368421
1.7177027892047242e+18,-0.8195981369,-1.92651628865,9.561801132300001
1.7177027894047242e+18,-0.8549695815999998,-1.8629360047499997,9.556030632
1.7177027896047242e+18,-0.83515079498,-1.8048792344,9.56032669835
1.7177027898047242e+18,-0.8375982055749999,-1.7840799866000001,9.563327957149998
1.7177027900047242e+18,-0.8267607421850001,-1.7320856094,9.554488838300001
1.7177027902047242e+18,-0.8274717636150001,-1.7465679930500002,9.5602219162
1.7177027904047242e+18,-0.843690536495,-1.76205329135,9.54803725435
1.7177027906047242e+18,-0.8412131881749998,-1.7945282593000003,9.560386573849998
1.7177027908047242e+18,-0.8396749396000001,-1.8787037418421055,9.561083414105264
1.7177027910047242e+18,-0.8768091659600001,-1.91535699455,9.5629612198
1.7177027912047242e+18,-0.85388433839,-1.8974467391,9.5390259933
1.7177027914047242e+18,-0.8603134689399999,-1.8987190933000004,9.541563217100002
1.7177027916047242e+18,-0.8560697937,-1.9186426619999999,9.547782783399999
1.7177027918047242e+18,-0.8746386795050001,-1.93049052435,9.550806495549999
1.7177027920047242e+18,-0.85534380341,-1.8627638626500005,9.550230194000003
1.7177027922047242e+18,-0.8595725097699999,-1.8445991364,9.57995088955
1.7177027924047242e+18,-0.7984396362299999,-1.78256813055,9.5676614455
1.7177027926047242e+18,-0.8551952964368421,-1.657046259736842,9.555505539631579
1.7177027928047242e+18,-0.8617280273500001,-1.6910334779,9.517373519900001
1.7177027930047242e+18,-0.82935784149,-1.7773664474500002,9.57532550805
1.7177027932047242e+18,-0.87100124359,-1.8537600860500003,9.573095146250001
1.7177027934047242e+18,-0.8604631576600001,-1.8842367097000001,9.562055603050002
1.7177027936047242e+18,-0.8524922332699999,-1.8784287872500003,9.5434642638
1.7177027938047242e+18,-0.8731193389900002,-1.90934699255,9.550918762249998
1.7177027940047242e+18,-0.8685238952800001,-1.9173927612,9.538090438849999
1.7177027942047242e+18,-0.86968398285,-1.9133287125499998,9.5572730484
1.7177027944047242e+18,-0.8626088272947368,-1.8633645870000002,9.553118398578947
1.7177027946047242e+18,-0.8618028717099999,-1.8577867126,9.55246055605
1.7177027948047242e+18,-0.8568182373100001,-1.78794195555,9.55979530325
1.7177027950047242e+18,-0.8532930679300001,-1.7627643127000003,9.567257286050001
1.7177027952047242e+18,-0.84445394898,-1.7413363724,9.56670343785
1.7177027954047242e+18,-0.845890960705,-1.72552924345,9.5498185502
1.7177027956047242e+18,-0.8452996902400001,-1.7262776871,9.549638923550003
1.7177027958047242e+18,-0.8627833328250001,-1.7974397049,9.566860610800001
1.7177027960047242e+18,-0.8542660446200001,-1.8581459656000003,9.559271392899998
1.7177027962047242e+18,-0.8816815338149999,-1.8995124435500004,9.560251854
1.7177027964047242e+18,-0.8699356962526316,-1.9207268805263158,9.548548953421053
1.7177027966047242e+18,-0.8209153976450001,-1.8129773941000003,9.53704261785
1.7177027968047242e+18,-0.9318871307800001,-1.7533189544999999,9.570206153750002
1.7177027970047242e+18,-0.50022976684,-1.64611189255,9.62562091845
1.7177027972047242e+18,-0.400664314275,-1.6569493560999997,9.648051773100002
1.7177027974047242e+18,-0.6934404831000001,-1.6433725890000002,9.80849562825
1.7177027976047242e+18,-0.6004987564049998,-1.30137128445,9.47635132605
1.7177027978047242e+18,0.26987379455999994,-1.6273558960999999,9.566501358050001
1.7177027980047242e+18,-0.097170433042,-1.3968053282499997,9.65464556145
1.7177027982047242e+18,-1.2247373560789474,-1.5871416273684211,9.43989857726316
1.7177027984047242e+18,-0.45929738615,-2.0378323059,9.6886099321
1.7177027986047242e+18,-0.7889643402500001,-2.0115993575499997,9.5407548981
1.7177027988047242e+18,-0.8515491943300001,-2.1147199172999995,9.519633819699997
1.7177027990047242e+18,-0.4899835739249999,-1.97903457635,9.557752052400001
1.7177027992047242e+18,-0.8935518493749999,-1.7140406340849998,9.6683046566
1.7177027994047242e+18,-0.403403617863,-1.2303365021050001,9.594590446400002
1.7177027996047242e+18,-0.05767506408649999,-1.3125530319000003,9.69747150425
1.7177027998047242e+18,-0.05988297271325001,-1.064152084325,9.715374275299999
1.7177028000047242e+18,-0.29047490169210527,-0.967367296668421,9.656876317105263
1.7177028002047242e+18,-0.8268056488,-0.9600959700999999,9.658387779200002
1.7177028004047242e+18,-0.71869297028,-1.2278666380999999,9.634894134649997
1.7177028006047242e+18,-0.5707855453549999,-1.6525709608999999,9.640649665849999
1.7177028008047242e+18,-0.8851842498800002,-1.7200057297,9.617627540650002
1.7177028010047242e+18,-0.8064030761749998,-1.8122289504499995,9.712784660450001
1.7177028012047242e+18,-0.464985557566,-1.1573931885,9.55275244905
1.7177028014047242e+18,-0.5516927490300001,-1.0738668824149997,9.68664900985
1.7177028016047242e+18,-0.2860626297025,-1.5176490326499998,9.68540659345
1.7177028018047242e+18,-0.29950349505894736,-1.555281564736842,9.653780123947366
1.7177028020047242e+18,-0.4455110549860001,-1.6227454834499997,9.5904889755
1.7177028022047242e+18,-0.19822528840465004,-1.59069712835,9.64572411345
1.7177028024047242e+18,0.573622146606,-1.98791111755,9.533524932899999
1.7177028026047242e+18,0.6207217025965001,-2.1108579483499996,9.575782058849999
1.7177028028047242e+18,-0.34131273651349997,-1.97532229615,9.5465104294
1.7177028030047242e+18,-0.41412133026210507,-1.9611168365999998,9.6084291685
1.7177028032047242e+18,0.244591369663,-2.1667741699000005,9.36183945465
1.7177028034047242e+18,0.913228431684,-2.0605475692499997,9.49859507005
1.7177028036047242e+18,0.8063022332557895,-2.080822906421053,9.621683711105264
1.7177028038047242e+18,-0.1649869079535,-1.42633891291,9.720807975850002
1.7177028040047242e+18,-0.5082381134669001,-0.9572219467449999,9.700240745600002
1.7177028042047242e+18,-1.055260574385,-2.3115531006,9.465551284749997
1.7177028044047242e+18,-0.65336132807195,-0.2638338546175,9.765190681550001
1.7177028046047242e+18,-0.5143454131999998,-2.1018541717000003,9.55267012035
1.7177028048047242e+18,0.034390983586500015,-1.7212556305,9.6298945313
1.7177028050047242e+18,-0.3949686584439999,-1.7638121339000001,9.551292983999998
1.7177028052047242e+18,-0.49458650205689986,-1.8568436737499998,9.9056211552
1.7177028054047242e+18,-0.4576299325973684,-0.7435984159842104,10.49257268763158
1.7177028056047242e+18,-0.7791821822849999,1.6759523391714999,11.29533123735
1.7177028058047242e+18,-0.214878158586,3.32614324945,9.75302098865
1.7177028060047242e+18,-0.9159377975634999,0.7430847474535001,8.57428967265
1.7177028062047242e+18,1.0772797852099998,2.09474395751,7.456781044
1.7177028064047242e+18,0.075832305914,2.03351378635,9.007705879100001
1.7177028066047242e+18,0.25083338927700005,1.5924035797,8.734396728549997
1.7177028068047242e+18,-0.25856481171035006,0.8982071685605002,8.64033982095
1.7177028070047242e+18,-1.07876918794,-0.2023566970829,10.341963774549999
1.7177028072047242e+18,-1.31447653198,-0.84074166868,10.98657579845
1.7177028074047242e+18,-1.6695492071578948,-0.8569758043736843,11.261586673157895
1.7177028076047242e+18,-1.5308590622099998,-0.12907658384899998,10.542569115
1.7177028078047242e+18,-1.056832305945,0.0640143814021,10.2895128475
1.7177028080047242e+18,-0.27667714697499995,-0.0645308074925,9.98978363785
1.7177028082047242e+18,1.3929732971700002,1.5815137252445,7.4980651932499995
1.7177028084047242e+18,0.430579605108,0.66076343533,9.1837922059
1.7177028086047242e+18,-0.7338339844,2.32464337935,7.876448341249999
1.7177028088047242e+18,-0.3504362640385,1.3645324401850003,8.638311538700002
1.7177028090047242e+18,-0.832351615915,-0.17197737123700002,10.36173765525
1.7177028092047242e+18,-0.9635462951421052,-0.36921116877157895,11.400253577894738
1.7177028094047242e+18,-0.26336233517950003,-0.8504265289699999,11.569441224000002
1.7177028096047242e+18,-0.7282131728954999,-0.4616250457850001,10.434643547099999
1.7177028098047242e+18,-0.5962176589730002,0.03147205353200001,9.8512766649
1.7177028100047242e+18,0.059321640009999996,1.15984808343,8.73255555725
1.7177028102047242e+18,0.1541569290275,1.71586683656,7.97447200015
1.7177028104047242e+18,-0.25863217163600005,1.4759158171500002,9.0275022125
1.7177028106047242e+18,-0.1486633529565,1.3665906601250002,8.39179666895
1.7177028108047242e+18,-0.7448286208845001,0.24336392212499997,9.962540290749999
1.7177028110047242e+18,-0.7798624781715789,-0.4329628070813684,11.522801368421051
1.7177028112047242e+18,-0.601209777815,-0.43648482513299997,11.347250770499999
1.7177028114047242e+18,-0.9894499282599998,-0.12766950988359999,10.4514236525
1.7177028116047242e+18,-0.96552967064,0.17280814361105,9.99298697625
1.7177028118047242e+18,-0.704135742185,0.773561370875,9.654518325800002
1.7177028120047242e+18,-0.4401971053925,2.10740762325,7.6939029464000015
1.7177028122047242e+18,-0.6902371444700001,1.1550655289049998,8.971211769149999
1.7177028124047242e+18,-0.8439450073450001,1.65221919245,8.820437805249998
1.7177028126047242e+18,-0.7372543716300001,1.1466230849949999,9.03084027105
1.7177028128047242e+18,-0.9580787176975788,0.4669027549394736,10.050943691789472
1.7177028130047242e+18,-1.04014949789,-0.39639070129500004,10.588396317
1.7177028132047242e+18,-1.1331735535065,-0.6562054138200001,11.079562430500001
1.7177028134047242e+18,-1.298063163672,-0.488801033025,10.627697090000002
1.7177028136047242e+18,-1.0712548142449998,-0.3306548996015,10.1861902088
1.7177028138047242e+18,-0.9481807480050002,-0.039622604366,10.029398757600001
1.7177028140047242e+18,-0.27790459441000004,0.50688343054725,8.6438649902
1.7177028142047242e+18,-0.12075389099499997,1.7314419480299996,7.77293110655
1.7177028144047242e+18,-0.2529739379879,0.77019337458,9.4445873794
1.7177028146047242e+18,-0.04274794729421052,1.3662325889736842,9.425599365631578
1.7177028148047242e+18,-0.36925213622999997,1.8036143646000002,9.408138175900001
1.7177028150047242e+18,-0.637913452138,1.57084840405,9.56519906635
1.7177028152047242e+18,-0.5870641937705001,1.137297477805,9.735507408200002
1.7177028154047242e+18,-1.405951309165,0.99264578245,10.92076515205
1.7177028156047242e+18,0.013352233884999959,0.4109928360135,9.596850746650002
1.7177028158047242e+18,0.159650505063,-1.8794766081000003,10.14484618365
1.7177028160047242e+18,-0.22692061614749998,-1.29664112089,9.71049442295
1.7177028162047242e+18,-0.07223977655749998,-0.820398971565,9.674307174800001
1.7177028164047242e+18,-0.039423282021578944,-1.488544030589474,9.748919123631579
1.7177028166047242e+18,0.22182371520105,-0.5839132461309999,9.674733787600001
1.7177028168047242e+18,-0.23895558928703503,-0.9479113083049999,9.7100453566
1.7177028170047242e+18,-0.112251571643,-1.505516761745,9.698751342949999
1.7177028172047242e+18,0.22359752653400006,-0.7394997025044998,9.73419763185
1.7177028174047242e+18,0.4581223297305,-0.6363042984055001,9.84495231715
1.7177028176047242e+18,0.0031958541400000096,-1.1504775695949998,9.8940352471
1.7177028178047242e+18,-0.08354127502699994,-0.142518631039,9.55049214845
1.7177028180047242e+18,-0.041366477980000003,2.4354803924995,11.158777703000002
1.7177028182047242e+18,-0.07266993474736841,3.276063706157895,6.98309699613105
1.7177028184047242e+18,-0.20898042310500003,6.252931960900001,-8.948773429350002
1.7177028186047242e+18,7.120655021599999,10.66465523635,-2.896933296195
1.7177028188047242e+18,5.4952899855155,3.084470809895,6.81844097865
1.7177028190047242e+18,-1.0451940078000002,3.1415995099294998,7.743674446349999
1.7177028192047242e+18,-2.6237588652949997,7.9631255956499984,7.1234317479
1.7177028194047242e+18,0.5952147446160001,5.6050492401500005,7.371802757349999
1.7177028196047242e+18,-0.872999588029,6.527281448249999,7.356482116650001
1.7177028198047242e+18,-1.3093721465800001,7.02647836315,6.820903358600001
1.7177028200047242e+18,-1.555667604063158,7.256357695,6.514153747631579
1.7177028202047242e+18,,,
