Timestamps,Gyro_X,Gyro_Y,Gyro_Z
1.7177026536072384e+18,0.09292593984345002,0.22965279575250003,0.070991916831445
1.7177026538072384e+18,-0.29291656670849997,0.5067272134299999,0.87700355348
1.7177026540072384e+18,-1.3960371136999998,0.8804033200999999,1.53299931285
1.7177026542072384e+18,-0.8148946620450002,1.980651032185,2.98045390255
1.7177026544072384e+18,-2.8105782687500005,4.121966958,6.5728478193
1.7177026546072384e+18,-0.7553540371949999,2.4888871491000004,5.01647374635
1.7177026548072384e+18,0.8198074012894999,3.2085325301,3.2377634047500004
1.7177026550072384e+18,0.9414459622284997,1.4949952040544998,-0.160996707515
1.7177026552072384e+18,0.8891720105305001,0.27022941355900004,1.051243250075
1.7177026554072384e+18,0.47310649249,0.03753918429263157,0.40206485358894734
1.7177026556072384e+18,0.09244717546000002,0.11634652516050001,-0.54182108193
1.7177026558072384e+18,-1.0529862701350001,0.42316685995549996,-0.865434615345
1.7177026560072384e+18,-0.9182451504775001,-0.5127291584275,-0.42581698718854993
1.7177026562072384e+18,-0.2734897454855,0.24217529828399997,0.188353831695
1.7177026564072384e+18,-0.011599249253500001,-0.0513297154565,-0.3437830651223501
1.7177026566072384e+18,0.035094431536545,-0.1213474198245,-0.21867084756735
1.7177026568072384e+18,-0.12852969169050002,0.06606806433386499,-0.035178590030699994
1.7177026570072384e+18,-0.24865636899499996,0.12118437793450001,-0.009410984185715
1.7177026572072384e+18,-0.35904657684736846,0.059433844821578936,-0.05765795874210528
1.7177026574072384e+18,-0.769548314805,0.11962837041505,-0.029969432861
1.7177026576072384e+18,-1.1013958097,0.441818591215,-0.18423887822090002
1.7177026578072384e+18,-1.0348839999,0.35726687823,0.03631402212285
1.7177026580072384e+18,-0.5479523713515,-0.071982228422415,0.09440455848811499
1.7177026582072384e+18,-0.06836386107700002,-0.1803702593825,0.043512467671400004
1.7177026584072384e+18,-0.191411609765,0.030937311518,0.10588455002539998
1.7177026586072384e+18,-0.7772725746200001,0.36390787474819997,-0.28519691022699994
1.7177026588072384e+18,-0.10597061834165003,0.270165317638,0.008398952325999996
1.7177026590072384e+18,-0.44621072469126305,-0.06747086443210526,-0.14412155001578947
1.7177026592072384e+18,0.17534044591300002,-0.071250084048,0.025512140241499993
1.7177026594072384e+18,0.03631691804020001,-0.4268195768905,-0.059474873269499996
1.7177026596072384e+18,-0.054690975268699996,0.031116028311050002,-0.13812549746799999
1.7177026598072384e+18,0.06804371632285,-0.08867292626695,0.00011753262550000116
1.7177026600072384e+18,0.13046325766749997,0.022884024682000004,0.12721423695065
1.7177026602072384e+18,-0.20011522130685,0.190917911466,-0.016252638771700002
1.7177026604072384e+18,-0.32525719554,0.06603001794175,-0.06475575692255
1.7177026606072384e+18,-0.21004007150999998,0.22270186152550003,0.05075557860494999
1.7177026608072384e+18,0.035455580139894735,-0.002835296621431578,0.078070584881
1.7177026610072384e+18,0.1791427277045,-0.07953179171000001,-0.08309786915850001
1.7177026612072384e+18,0.30827146173,-0.14298030324,0.0005275988023500002
1.7177026614072384e+18,0.18277649689665,-0.010029406752600003,0.063994834988
1.7177026616072384e+18,-0.12791628809185,-0.04059375174440002,-0.02704695719245
1.7177026618072384e+18,-0.23649165555499999,0.07296931257825001,-0.016816851473550002
1.7177026620072384e+18,-0.24337456746499994,0.14741443394899997,0.0317126746979
1.7177026622072384e+18,-0.06375569890725,0.10233151502550002,0.06247261644205
1.7177026624072384e+18,0.0751080624674065,-0.07519422266599998,-0.028777708554500004
1.7177026626072384e+18,0.27519365439999993,-0.1648869624210526,-0.03132007672821052
1.7177026628072384e+18,0.36960477233,-0.07053467784455,0.002452931274099999
1.7177026630072384e+18,-0.0944678220403,-0.025595543365100004,-0.041669124871399996
1.7177026632072384e+18,-0.24177871905400003,0.09543688832448001,-0.017656761269100003
1.7177026634072384e+18,-0.2807339809700001,0.06704849096950001,-0.0010310020990150013
1.7177026636072384e+18,-0.16731843631400004,0.10213744444799999,0.040660533892249995
1.7177026638072384e+18,0.08525984855464999,-0.019570201564699997,-0.03657267855
1.7177026640072384e+18,0.24806566611999997,-0.13499979865835,0.023646416560650002
1.7177026642072384e+18,0.3507413879149999,-0.08726930119945,0.022348113940525
1.7177026644072384e+18,0.03988029089236842,0.0875677775791158,0.024416811567626318
1.7177026646072384e+18,-0.15302306422705,-0.05772487763026,-0.0593985527826
1.7177026648072384e+18,-0.15370149239699998,0.094221155345,0.0151673050364
1.7177026650072384e+18,-0.24513191804,0.1454964399285,0.007746510789309999
1.7177026652072384e+18,-0.10369372030085,-0.03144974002195,-0.011057662454500001
1.7177026654072384e+18,0.10653041265499999,-0.036944449887724995,-0.031447559312999994
1.7177026656072384e+18,0.20424702764500005,-0.0707117781955,0.053967586042749996
1.7177026658072384e+18,0.314687286305,-0.04791623083839999,0.026692939852984997
1.7177026660072384e+18,-0.05894864121680001,0.09559276468784998,0.01217646951485
1.7177026662072384e+18,-0.10233267122473683,-0.0693337099783158,-0.038436441438
1.7177026664072384e+18,-0.24629936517,0.0973078711047,-0.020875524535699998
1.7177026666072384e+18,-0.263150970645,0.16942130662000002,0.004339004773549999
1.7177026668072384e+18,-0.08075926578614999,0.1022124365005,0.07054565413125
1.7177026670072384e+18,0.05863771662125,-0.07486477270950001,-0.026054105908300002
1.7177026672072384e+18,0.154218529903,-0.010290037327899999,0.05231696828340001
1.7177026674072384e+18,0.25547838359999997,-0.016578640305695,0.09729044660150002
1.7177026676072384e+18,0.12598231234624996,-0.11356928657000001,-0.024002596479399996
1.7177026678072384e+18,0.272567531835,-0.2153951985755,-0.0012255248156000011
1.7177026680072384e+18,0.2761922108163158,-0.27439355693684214,-0.02077802022984211
1.7177026682072384e+18,-0.12040227969999999,-0.10339835488539999,-0.0137552634855
1.7177026684072384e+18,-0.7801433079300001,-0.012404465869500005,-0.0492435808306
1.7177026686072384e+18,-0.5672640979300001,0.07643712368200001,-0.0024766417301000016
1.7177026688072384e+18,-0.3823400687385,0.06738862415065,0.08491464159585001
1.7177026690072384e+18,0.044296820218,0.15546610131400002,0.169403937465
1.7177026692072384e+18,0.014706784405699998,0.08837915354140999,0.09487570421964998
1.7177026694072384e+18,-0.005843070613699999,-0.09967355346449999,-0.08224930511600001
1.7177026696072384e+18,-0.01844511350553,-0.0810148317345,-0.099214672675
1.7177026698072384e+18,-0.033770262915,-0.01703010185224,-0.0283735181209
1.7177026700072384e+18,-0.0018596449209894738,0.017578385599,0.017581513053
1.7177026702072384e+18,0.010475345596450001,0.0237325276255,0.020798304002505
1.7177026704072384e+18,0.0018620927530649996,0.0030069227339949993,0.033569444064500006
1.7177026706072384e+18,0.0062178735158499995,-0.1097284119545,-0.02542714530095
1.7177026708072384e+18,0.04519122270800001,-0.11943999194249996,-0.1222508653995
1.7177026710072384e+18,0.07373245181,-0.0421312113305,-0.12643057070649996
1.7177026712072384e+18,0.17339784352800003,-0.057086188232800004,-0.09544775284975
1.7177026714072384e+18,0.13126936980925002,0.068426261937,0.07226713139285
1.7177026716072384e+18,0.019158950457000005,0.127923303936,0.15006135450224994
1.7177026718072384e+18,0.07444772673105263,0.09354686227210526,0.1316965659557895
1.7177026720072384e+18,0.050387444645309996,0.0310057460337,0.050062139938500005
1.7177026722072384e+18,-0.07076443655735,0.0638789509286,0.021188555471555005
1.7177026724072384e+18,-0.1731240365695,-0.011216668970750002,-0.092179423199
1.7177026726072384e+18,-0.0858389535935,0.0591364709665,-0.04453450788299
1.7177026728072384e+18,-0.065999851751,0.0385873014105,-0.0425706250595
1.7177026730072384e+18,-0.049369916039,0.03704824429050001,0.02669419869825
1.7177026732072384e+18,-0.0017910404608600002,0.031765125202850006,0.0232687048624
1.7177026734072384e+18,0.009234762605385001,-0.008680933969945,-0.00474657127685
1.7177026736072384e+18,0.003995673326584211,-0.00780439777841579,-0.013118054497473684
1.7177026738072384e+18,0.014012229030449996,0.0082612262634365,-0.002201633690795
1.7177026740072384e+18,0.005583811946855,0.010378618718864998,-0.0062538148955249995
1.7177026742072384e+18,-0.007499033486750001,0.006045436108462001,0.0015042792542699999
1.7177026744072384e+18,-0.01671651126845,-0.00101108922394,0.00022093290459499997
1.7177026746072384e+18,-0.028443294485000003,0.00304437160366,-0.00111819983007
1.7177026748072384e+18,-0.024705005901999998,0.005644078040549999,-0.00215750297052
1.7177026750072384e+18,-0.020661723193500004,0.00482604834255,-0.00471495880045
1.7177026752072384e+18,-0.0001383863915700003,0.0074308604527,-0.0003076133320000001
1.7177026754072384e+18,-0.0015365642580526314,0.013214567578157895,-2.0285632631591123e-07
1.7177026756072384e+18,-0.018637773954,-0.000607526698412,-0.0022891948230824998
1.7177026758072384e+18,-0.006445393169632001,-0.004883781512055001,0.00029355066390000003
1.7177026760072384e+18,0.005211327819645001,0.00946127459125,0.0018507350003499998
1.7177026762072384e+18,0.010424402652655,0.006915153424,0.0018901333908999999
1.7177026764072384e+18,0.0129595633594,0.0034348246293239995,0.00203325812508
1.7177026766072384e+18,0.009894913103795002,-0.0007621160680150001,-0.004049352766155
1.7177026768072384e+18,-0.0011334503190799997,0.0106406037875,0.00222415945018
1.7177026770072384e+18,-0.0060163199605784996,-0.01255622589955,-0.00012329104322500017
1.7177026772072384e+18,-0.011377452824210526,-0.006598709543263158,-0.0064744945662157894
1.7177026774072384e+18,-0.023288379213600004,0.006815236289449999,-0.0025067807639999997
1.7177026776072384e+18,-0.013220807839400004,0.0027197322139195,0.00227258157725
1.7177026778072384e+18,-0.00765000949584,0.00481070843534,-0.0015363907322049999
1.7177026780072384e+18,0.009311225125669998,0.00778368860505,0.003674264043060001
1.7177026782072384e+18,0.01254215513227,0.0155010002546,0.008128464641300001
1.7177026784072384e+18,0.016725233476999994,0.00579381021171,0.009794955072530002
1.7177026786072384e+18,0.011240732891000001,0.0012340349465649997,-0.00042463897266050007
1.7177026788072384e+18,0.013085315324455001,0.01362520616945,0.0010415848816499999
1.7177026790072384e+18,0.017655895850526317,-0.0017753944019473686,0.0007593976330526318
1.7177026792072384e+18,0.0932512227193,-0.07064791685399999,-0.06256676766045001
1.7177026794072384e+18,0.00034604953354999967,-0.018192401435349996,0.00849251940385
1.7177026796072384e+18,0.07532546993835001,-0.11755267812905001,-0.007822506966900001
1.7177026798072384e+18,0.02690052329538,-0.057439025303000005,0.005175190255449999
1.7177026800072384e+18,-0.019107478887099995,0.004976231860355001,-0.0011672878171650005
1.7177026802072384e+18,0.023728204590910004,-0.0017150865174234999,-0.01280435832485
1.7177026804072384e+18,-0.04848769651899999,0.035355400613815494,0.019284760695215
1.7177026806072384e+18,-0.07065054113199999,0.035463190451499996,0.067018108256
1.7177026808072384e+18,0.015791255668189473,0.004256936941894738,0.0434560072851579
1.7177026810072384e+18,-0.031391972199170004,-0.008679898426749998,-0.038497646804500005
1.7177026812072384e+18,-0.034634507471349996,-0.0045111952182500005,-0.010428213700849998
1.7177026814072384e+18,0.038513444584799994,0.08743380245015,0.0431933223726
1.7177026816072384e+18,0.07341185305299999,0.08238815254654999,0.0341448802966
1.7177026818072384e+18,-0.012624608213249996,-0.03736589923525,0.0007667367120349998
1.7177026820072384e+18,-0.00547405073815,-0.00027252121257000106,0.03297356893315
1.7177026822072384e+18,0.00834512244926,0.0429857325725,-0.015465008397350002
1.7177026824072384e+18,-0.0015761871329130002,0.019687861244185,-0.035408340301
1.7177026826072384e+18,-0.011092037148599998,-0.017840475519580002,-0.029256926942999993
1.7177026828072384e+18,-0.029275637718489483,-0.004389510422147369,-0.0015162905844526317
1.7177026830072384e+18,0.005925026399400001,-0.017767302290544996,0.009830451407599998
1.7177026832072384e+18,0.010919178859500002,-0.10372841228100001,-0.031056724488499998
1.7177026834072384e+18,-0.06849204115979998,-0.036139626743650004,-0.05269433143775
1.7177026836072384e+18,-0.059743383156500005,0.024368435036519996,0.029188169585
1.7177026838072384e+18,0.0113721107136,0.0882627125845,0.027477487921149995
1.7177026840072384e+18,0.023659190347999997,0.053069142065499994,0.022281360614571998
1.7177026842072384e+18,0.0080200826801293,0.021119466936000003,0.005484508408370001
1.7177026844072384e+18,-0.023015406075500004,0.017040182184500003,-0.0044384695589999995
1.7177026846072384e+18,-0.019097194995421053,0.016607058038947367,-0.0007287134098157895
1.7177026848072384e+18,-0.024306928925000002,0.010518861492450002,-0.01523132980795
1.7177026850072384e+18,-0.031551173702,-0.001305856581905,-0.011887092935200001
1.7177026852072384e+18,-0.023471976629499996,0.0017303249973145002,-0.005804744642249999
1.7177026854072384e+18,-0.018154400633499997,-0.00246580326928,-0.006051171326585001
1.7177026856072384e+18,-0.00878378725635,0.00070587185911,-0.008687174087050002
1.7177026858072384e+18,-0.0065818499306000006,0.004165174177715,-0.007322287746095
1.7177026860072384e+18,0.00312541001505,0.0032647138578850003,0.0015531924552455
1.7177026862072384e+18,0.012887233099350002,0.006397884024684999,0.0023578184772635002
1.7177026864072384e+18,0.01656383614105263,0.004092120878052633,0.0012726116876947372
1.7177026866072384e+18,0.017540302873,0.009178802120949998,-0.001722796308085
1.7177026868072384e+18,0.006138280777564999,0.0006053507327299999,0.0013764971171735002
1.7177026870072384e+18,0.00420038198931,-0.002965009398876,0.0023678258758175
1.7177026872072384e+18,-0.00024053650261999997,0.0013989282626130002,-0.000460158172135
1.7177026874072384e+18,-0.010169544641099999,7.412015112499995e-05,-0.0030785097391050004
1.7177026876072384e+18,-0.004472418793,0.00290497589739,-0.00018271618762999997
1.7177026878072384e+18,-0.00826290069375,0.0005113835300712999,0.0007339597446575
1.7177026880072384e+18,-0.023802354653,-0.00025543859222814996,-0.008487996831750002
1.7177026882072384e+18,-0.016751571460842104,-0.0009627437562231579,-0.0028351332478315787
1.7177026884072384e+18,-0.007160643383699999,-0.0008520063245849999,-0.004255289549475
1.7177026886072384e+18,-0.0071866791927999996,0.0045547785531499995,-0.00233930387770214
1.7177026888072384e+18,-0.00485889190459,0.001117352556384,-0.0025405774592349994
1.7177026890072384e+18,0.012662885850049998,0.004243786499164501,0.000720038940185
1.7177026892072384e+18,0.014277589268555001,0.00229688296979,0.00022453670388500015
1.7177026894072384e+18,0.0119719486047,0.0007106373873039999,0.0007498838940025
1.7177026896072384e+18,0.0176555786755,-0.007011056481949998,0.00188471318692945
1.7177026898072384e+18,0.013184291288050001,-0.0060481316876499994,-0.0019799503265050004
1.7177026900072384e+18,0.0026349503526363156,-0.007855595683526317,-0.005132334159752633
1.7177026902072384e+18,0.0113838856343,-0.0193060951771,-0.0079727154226
1.7177026904072384e+18,0.0312544378458,-0.093094429007,-0.025296097750075
1.7177026906072384e+18,-0.01877484638835,-0.039074407146,-0.0023135466031850003
1.7177026908072384e+18,-0.043938088510500004,-0.006040186772765001,0.012382675475049999
1.7177026910072384e+18,-0.0266330089425,0.0181555977555,0.0162869977303
1.7177026912072384e+18,-0.013394496613750001,0.0406694822005,0.005951288563485001
1.7177026914072384e+18,-0.006533100110209999,0.022548316047399992,0.00438400091362
1.7177026916072384e+18,-0.0048881709104,0.011189505265763,0.0020382639373000004
1.7177026918072384e+18,-0.0020579697726315787,0.020561898861894735,0.004062478050947368
1.7177026920072384e+18,-0.004240524221905,0.00260237247244,0.029576724184499997
1.7177026922072384e+18,0.00807302258975,0.013826955243798001,0.00894322539705
1.7177026924072384e+18,0.017665836214849996,0.023314789147795,0.01686876697945
1.7177026926072384e+18,0.009763686393849998,-0.00471295342435,0.003072880581155
1.7177026928072384e+18,0.013920063431,-0.0021057224687469995,-0.003200947330275
1.7177026930072384e+18,0.015295908413999998,-0.0028656269074349996,-0.006506140227739999
1.7177026932072384e+18,0.007625918130549999,-0.000207119810508,-0.0017448146245700002
1.7177026934072384e+18,0.00333788550049275,-0.0019553649589499995,-0.00047994359624150006
1.7177026936072384e+18,-0.002188384014805,0.00176538161749,-0.0021845786831554996
1.7177026938072384e+18,-0.009162234243882683,-0.0003174797319432106,-0.0034512730658947375
1.7177026940072384e+18,-0.015286560396899998,0.0020244889775549997,-0.005647930456229999
1.7177026942072384e+18,0.15772078782349996,-0.065728555987,-0.014014673489519996
1.7177026944072384e+18,0.136911283948035,-0.11953014618899997,-0.027458780234750003
1.7177026946072384e+18,0.0184168457048,-0.029468191461000003,-1.843587915000065e-05
1.7177026948072384e+18,0.009526282920899997,0.01961571328635,0.008485662028557
1.7177026950072384e+18,-0.030257140809989997,0.01950632939075,-0.005763027444315
1.7177026952072384e+18,-0.07673969119849999,0.0424725983295,-0.011276812106759999
1.7177026954072384e+18,-0.0509723804875,0.0263216024259,-5.229308700550016e-05
1.7177026956072384e+18,-0.01905522958164737,0.0114925011964,-0.0005362039116842103
1.7177026958072384e+18,-0.02449527447905,0.019078632118600003,-0.008780539373561502
1.7177026960072384e+18,-0.0712645474825,0.028260960803,0.006465995009544999
1.7177026962072384e+18,-0.056037674564999994,0.0034693543159755,-0.005910343537149999
1.7177026964072384e+18,-0.013263534731449996,0.00042417171644,0.0010106295815314997
1.7177026966072384e+18,-0.00394658898,0.007681001327349999,0.00260210479594
1.7177026968072384e+18,-0.006328879436450001,-0.001622114263615,-0.0007463268700450001
1.7177026970072384e+18,-0.009059301646900001,0.0030061354424799997,-0.002374120487455
1.7177026972072384e+18,-0.00012143437344349995,0.0014488849615149999,-0.00306364790316
1.7177026974072384e+18,0.004855288952636842,0.001708207737826842,-0.0012728653259652632
1.7177026976072384e+18,0.01431171274925,6.105406800000004e-05,0.0026631712681215005
1.7177026978072384e+18,0.007407141319900001,0.0006143637554795001,7.630406180399998e-05
1.7177026980072384e+18,0.010355948354049998,0.0016158253450264995,-0.00047589479952999997
1.7177026982072384e+18,0.015161918522999997,0.0008662920503855001,0.0020663612056465
1.7177026984072384e+18,0.015195501222500001,-0.00182927986611,7.519589263999998e-05
1.7177026986072384e+18,0.005441657942450001,0.00235385378774,1.808230301700007e-05
1.7177026988072384e+18,-0.014097943715599998,0.0026975297892243002,-0.001679685479025
1.7177026990072384e+18,-0.018470827397750002,0.0006841966648525001,-0.001516647916285
1.7177026992072384e+18,-0.02078821657315789,-0.0007278419186121053,-0.004199777692968421
1.7177026994072384e+18,-0.01086527265105,0.0010848659906075,-0.004183663858840001
1.7177026996072384e+18,-0.00820575333175,-0.0021422621300200002,-0.0015726011947940002
1.7177026998072384e+18,-0.0015794103353429997,-7.109431314499998e-05,-0.00030005105069
1.7177027000072384e+18,-0.0002877935111755,0.00040765138112049994,-0.0023193429107299995
1.7177027002072384e+18,0.006762115494335,0.0029801908123899996,0.0003629153123750004
1.7177027004072384e+18,0.061041642728,0.019172301068099997,0.023393296997299997
1.7177027006072384e+18,0.1455350935505,-0.030335731200399996,0.00620257002245
1.7177027008072384e+18,0.07287155007425,0.007370489515734999,-0.00236851249442
1.7177027010072384e+18,-0.006567633392105263,0.031180493729473683,-0.004979941123950526
1.7177027012072384e+18,-0.012600801629050001,0.0210372707102,0.00575260187085
1.7177027014072384e+18,-0.01788466505305,-0.0016931087186050002,-0.0003096637783949997
1.7177027016072384e+18,-0.020867168157700004,0.0125250531591,-0.00067414636726
1.7177027018072384e+18,-0.013476578402450002,0.0111357927325,-0.00377578499075
1.7177027020072384e+18,-0.022783589875000003,0.012833735951799999,-0.00647107370855
1.7177027022072384e+18,-0.0216067217755,0.0284992163545,-0.003261108567900001
1.7177027024072384e+18,-0.025213041622999997,0.020155575125100002,0.0046053630296965
1.7177027026072384e+18,-0.00947348091325,-0.0021212368854665,-0.0060171879363444996
1.7177027028072384e+18,0.020137316966657895,0.012470053373947368,0.005493252660836841
1.7177027030072384e+18,0.028228039434499995,-0.0115190275194,0.005059007089200001
1.7177027032072384e+18,0.028929657488,-0.006968933535645,0.00021898588099999997
1.7177027034072384e+18,0.00822632999575,0.013285933342000001,-0.002186560806
1.7177027036072384e+18,0.011726888024599999,0.0074284604285,-0.00097690710108
1.7177027038072384e+18,0.00831236986895,-0.0017050096240452002,0.0007239609500649996
1.7177027040072384e+18,-0.02117593563195,0.0059092947339999995,-0.0027130232663000005
1.7177027042072384e+18,-0.0246962447195,0.014143767906500002,-0.0010085029178799998
1.7177027044072384e+18,-0.01417871979075,0.0069900529574499996,0.001111103012165
1.7177027046072384e+18,-0.016588692087500002,-0.0032560618419250004,-0.004459815494954
1.7177027048072384e+18,-0.015844552086173684,0.00513635860674737,-0.0014989022900894738
1.7177027050072384e+18,0.0383631779694,-0.03075118404835,-0.0037907308551250003
1.7177027052072384e+18,0.019796088955149997,-0.018577294702835,0.005384861235069999
1.7177027054072384e+18,0.028458202631499997,-0.021115556744185,-0.013600804902150002
1.7177027056072384e+18,0.014678879315200002,0.012566946074599999,0.0012816102594300001
1.7177027058072384e+18,0.0111251377382,0.00924146294449,-0.00015463887179999978
1.7177027060072384e+18,0.006855103792435001,-5.535819207499997e-05,0.015505999233030004
1.7177027062072384e+18,-0.004893620297995001,-0.011042601335700002,-0.0100105092401
1.7177027064072384e+18,0.0117994180699,-0.06069570537649999,-0.010125253163219999
1.7177027066072384e+18,0.07598635554315789,-0.19834222447894737,-0.04051211211631579
1.7177027068072384e+18,-0.05313698377035,-0.16802108660499998,-0.022113084605499995
1.7177027070072384e+18,-0.10794291049,-0.0540417759926,-0.006311210757009999
1.7177027072072384e+18,-0.13296752646999999,0.091534105035,0.008846216559300001
1.7177027074072384e+18,-0.0223165661458,0.0999500230865,0.07815475686949999
1.7177027076072384e+18,0.051198029098015,0.0421882473161,-0.007576934719349995
1.7177027078072384e+18,0.07874679762114999,0.062298883589999986,0.02078005310654
1.7177027080072384e+18,-0.15994267018000002,-0.001174552267415,0.0026708780555250006
1.7177027082072384e+18,-0.15209014489599998,0.023987165419,-0.00586764914975
1.7177027084072384e+18,-0.04742285442526315,0.002846946277960911,-0.0023050524643431583
1.7177027086072384e+18,-0.018027020292999997,0.0019368166278973802,-0.00360894359167
1.7177027088072384e+18,-0.00836874265245,-7.747607306999999e-05,-0.001314865471675
1.7177027090072384e+18,-0.00450971560785,0.0012007054261909999,-0.0011587377172324997
1.7177027092072384e+18,0.0038524096217985,-0.001016781633495,0.0010959183913615
1.7177027094072384e+18,0.01767515391,-0.004143242060589998,0.00036059006818000005
1.7177027096072384e+18,0.0196774401705,-0.006335218600099999,0.0007205455098260002
1.7177027098072384e+18,0.017745187132999996,-0.004813199082800001,-4.5993819465000046e-05
1.7177027100072384e+18,0.013761833381149998,-0.0032421841431749996,-0.000260601635073
1.7177027102072384e+18,0.0005972428480000001,-0.0003231114425263159,0.0007164106140578946
1.7177027104072384e+18,-0.013220587815099999,0.003300061641415,-0.00021068826315849987
1.7177027106072384e+18,-0.025991084520000002,0.0039735803149,-0.001728344359535
1.7177027108072384e+18,-0.022692507924499998,0.00404893434015,-0.0005795683712250001
1.7177027110072384e+18,-0.0160491968272,0.0046130287519099995,3.3346237609999976e-05
1.7177027112072384e+18,-0.005356147634774999,0.0013098652736264998,-0.00032711540122849997
1.7177027114072384e+18,-0.00289096847695,-0.000252109189727,-0.0006171095068164999
1.7177027116072384e+18,-0.001028629290575,-8.641321915599998e-05,-0.00029760590989999996
1.7177027118072384e+18,0.00137339679911,0.00034038508885600005,0.000635240960435
1.7177027120072384e+18,0.014754919483157894,-0.0029695397549210525,0.00020705888923578953
1.7177027122072384e+18,0.018654164300499997,-0.0045604866927999995,-0.00013041875789749995
1.7177027124072384e+18,0.017152352350800003,-0.003281567597808499,-0.000139116181491
1.7177027126072384e+18,0.018453336275000003,-0.003505742159849999,0.000317592488145
1.7177027128072384e+18,0.026160430162999997,-0.006712116737355001,-7.435942542499997e-05
1.7177027130072384e+18,0.012970359756745,-0.015176208375950004,-0.01185909281529
1.7177027132072384e+18,-0.0094396710401155,0.0192238315701,-0.008348883339499999
1.7177027134072384e+18,-0.013547079264550002,0.009462408349750002,-0.0021065685315799997
1.7177027136072384e+18,-0.014861077651250002,-0.005656950047950001,0.00045831433984999946
1.7177027138072384e+18,-0.015694197855789474,-0.0009900923349999995,-0.012668769402894737
1.7177027140072384e+18,-0.018221128079999996,0.010955801909039001,0.006624217342909999
1.7177027142072384e+18,-0.007683530392105,-0.012461766577149999,-0.010052188789249999
1.7177027144072384e+18,-0.0031251746174122,0.00286397795423,0.006619807612334999
1.7177027146072384e+18,-0.029964981414999998,-0.002662185917075,0.006846359768284999
1.7177027148072384e+18,0.00497532553215,0.00291547505177,0.004914748738616
1.7177027150072384e+18,0.0101457492097,0.0023165170453499995,0.0032975071808499998
1.7177027152072384e+18,0.01714029847695,-0.00607524157944625,-0.0010029554832799998
1.7177027154072384e+18,0.015039636613499996,-0.0012341941182985,0.0012033001286899997
1.7177027156072384e+18,0.013550623599,-0.00495179375275,-0.00041394402502999996
1.7177027158072384e+18,0.005124016885031578,-0.0013285024661894738,-0.00016784479257684216
1.7177027160072384e+18,-0.0151965854815,0.003329369772144499,0.0007208195398300001
1.7177027162072384e+18,-0.032962440094,0.01260427562445,0.006111828784435001
1.7177027164072384e+18,-0.0819287560915,0.07637321055000001,0.06884450800744998
1.7177027166072384e+18,-0.0282497519615,-0.0009261736528499995,-0.00059213420642
1.7177027168072384e+18,0.0026562205630000003,-0.010424504172600001,-0.023042767261095
1.7177027170072384e+18,-0.0011683868884299997,-0.002747775925655,-0.00402580161964
1.7177027172072384e+18,0.0050507009144094995,-0.0049690748623450005,-0.005746315990075
1.7177027174072384e+18,0.019186898368000003,-0.00791431386015,-0.00389880921013
1.7177027176072384e+18,0.021951435231578952,-0.005306944055,-0.0013154598665526317
1.7177027178072384e+18,0.014244166388499999,-0.000761137119825,0.001613203063377
1.7177027180072384e+18,0.0181346104015,-0.0034237885731225,0.00017727207168499992
1.7177027182072384e+18,0.0158137348247,-0.00428363817634,-0.0009728377569499999
1.7177027184072384e+18,-0.0037314304179850003,0.00499362976418,0.005225057317924999
1.7177027186072384e+18,-0.0183551104276,0.0015614253061017502,-0.00478171302225
1.7177027188072384e+18,-0.025225817133,0.003494989709,-0.00281895455018
1.7177027190072384e+18,-0.021129893604000003,0.0030314885691798002,-0.0025314578321100002
1.7177027192072384e+18,-0.0107538735961,7.362971668500002e-05,-0.00232246806841
1.7177027194072384e+18,-0.004998502076473684,-0.0006148129040736843,-0.002844879673257895
1.7177027196072384e+18,-0.0020301867420999997,0.0012392402976149999,-0.0003287353203
1.7177027198072384e+18,3.832527445000004e-05,-0.0020835171016549995,-0.0009720672271149999
1.7177027200072384e+18,0.0093888121661,-0.00176343226049,0.0013713365188669497
1.7177027202072384e+18,0.014202067489,-0.0050993468379500004,-0.0007244598469499997
1.7177027204072384e+18,0.0166344040995,-0.0030746247676999997,-0.0006947473740599999
1.7177027206072384e+18,0.0159503267155,-0.0044496812449345,-0.0019879290135815
1.7177027208072384e+18,0.017915704334499998,-0.00325479340379205,0.0006476323119718301
1.7177027210072384e+18,0.010811780602299998,-0.0036996670125950004,-0.00164054975615
1.7177027212072384e+18,-0.008313139489334737,0.0007837234267573683,-0.0018752117175894738
1.7177027214072384e+18,-0.024331301916999996,0.004700301820379999,-0.0006952451657350001
1.7177027216072384e+18,-0.0190183767585,0.00040412556552999986,-0.004848526418150001
1.7177027218072384e+18,-0.016691280855649995,0.0007724940282000001,-0.0015210671700099999
1.7177027220072384e+18,-0.010331293195,0.0007880263176249999,-0.001520841335955
1.7177027222072384e+18,-0.004240180557835,0.001109258137767,-0.00030971816734999997
1.7177027224072384e+18,-0.004700805945055,0.002291570874485,0.0006434225128640003
1.7177027226072384e+18,0.0016817378287084998,-0.0011836573540132001,-0.0006664944346850001
1.7177027228072384e+18,0.0083015026294,-0.0027432115456650003,0.00032670362841050003
1.7177027230072384e+18,0.012391419346421052,-0.003101405589578947,0.0007753157988094736
1.7177027232072384e+18,0.014967072895499997,-0.00379036117805,-0.000669389963085
1.7177027234072384e+18,0.01239347904875,-0.0020475202473964993,0.0003875417285650001
1.7177027236072384e+18,0.015597818651999999,-0.0028099309303600004,-0.000746022316187
1.7177027238072384e+18,0.0024969565888199995,-0.0011297643592065002,-0.0003236326505215
1.7177027240072384e+18,-0.019960239157,0.0033072824473500003,-0.0015032199677550001
1.7177027242072384e+18,-0.023616144060500003,0.0037723832880899996,-0.0024047341780105
1.7177027244072384e+18,-0.018678965092499996,0.00445830537925,0.00090521849926
1.7177027246072384e+18,-0.00434015517825,0.0017420309800185003,-0.0002768410835000001
1.7177027248072384e+18,-0.0023944842764210524,-0.0005228041064225788,0.00036917458974315795
1.7177027250072384e+18,-0.000841375693573,-0.00030583387120000004,-6.464072505899999e-05
1.7177027252072384e+18,-0.00023079799134329994,0.000258490818735,-0.0004653988056405
1.7177027254072384e+18,0.002206776145521455,0.00014572856021650009,0.00047389373655000005
1.7177027256072384e+18,0.009970857948650002,-0.002345017943345,0.0003092839848434999
1.7177027258072384e+18,0.0152411731895,-0.003889981698,0.000733752665134
1.7177027260072384e+18,0.0224685998625,-0.0053949120455499995,0.00021366011352945
1.7177027262072384e+18,0.02290273849,-0.0055197339622,-0.0004978262237234001
1.7177027264072384e+18,0.017812379543000002,-0.00379224570355,0.001125191454855
1.7177027266072384e+18,0.0121364608175,-0.002121072082056,-0.00013325032773271002
1.7177027268072384e+18,-0.0019203719412631576,-3.324912574315794e-05,-0.001448812085764737
1.7177027270072384e+18,-0.00795202013075,-0.00019720884157499994,-0.0030318788252705004
1.7177027272072384e+18,-0.0135896760503,0.0019059360115250001,-0.0018545323750089996
1.7177027274072384e+18,-0.0196418154515,0.00436098173375,-0.00013155853375000003
1.7177027276072384e+18,-0.024956666679,0.0049544310081,-0.0008873983868335001
1.7177027278072384e+18,-0.018655792716500003,0.00230090605907,-0.00105054494924
1.7177027280072384e+18,-0.010079292999299999,0.0012796661758649997,-0.0005291128647329999
1.7177027282072384e+18,-0.0058021582805600005,0.0022212029987300004,-0.0010731026413965
1.7177027284072384e+18,-0.0030690733865735,-0.00045320244386,-0.00021084747272699997
1.7177027286072384e+18,-0.00010526241237263159,0.0002612677114931579,0.0007681568202473683
1.7177027288072384e+18,0.0026221925042000005,-0.0013737128086900002,-0.0007798188016799998
1.7177027290072384e+18,0.010530989430500001,-0.0024105715506299997,0.0008452739333935
1.7177027292072384e+18,0.013714934000999999,-0.0026377309054549996,-4.261929996499999e-05
1.7177027294072384e+18,0.0184432700745,-0.004339031811,0.000605110253737
1.7177027296072384e+18,0.018287842255999998,-0.0039535247371,0.0008843096438439999
1.7177027298072384e+18,0.017538027372,-0.0048723242478,-4.34362096655e-05
1.7177027300072384e+18,0.004504256980520001,-0.0009699524962605,-0.00034086827658650004
1.7177027302072384e+18,0.10547417345675,-0.044683575239349994,0.030424761224629997
1.7177027304072384e+18,-0.025480193934947368,-0.1317354527873684,0.058886355423263155
1.7177027306072384e+18,-0.010568941643029,-0.12396305901849998,-0.06733313376954998
1.7177027308072384e+18,-0.06388181257195,-0.1333034101275,-0.06721824302554999
1.7177027310072384e+18,0.015013227261849999,0.07041241559099999,-0.055200289101
1.7177027312072384e+18,0.2757469629161,-0.06578293263214999,-0.00915881069325
1.7177027314072384e+18,1.0559540778999998,-0.0291457438015,0.0402479202476
1.7177027316072384e+18,0.24403562303979998,0.16186082283605,-0.056863050420600005
1.7177027318072384e+18,-0.045004564055000015,-0.116578575603,-0.054591712448499995
1.7177027320072384e+18,0.0864689542935,0.1726231076244,0.12170198122119999
1.7177027322072384e+18,0.01149335129636842,-0.17273868404947368,-0.10281801193368421
1.7177027324072384e+18,-0.057987849749455,0.06212694566845001,0.014281505673150003
1.7177027326072384e+18,-0.347907562555,0.0117182238199,-0.05310836727727499
1.7177027328072384e+18,-0.39738030507499994,0.11183898206699998,-0.0073143997463
1.7177027330072384e+18,-0.0242214544591,0.015241460829,0.037840948112735
1.7177027332072384e+18,0.10832317992650002,-0.038376351492000006,0.0711400366134
1.7177027334072384e+18,0.0902832666435,-0.002666635572899999,0.0060470605273000005
1.7177027336072384e+18,0.30786534919999997,-0.296206177765,-0.07519495291749999
1.7177027338072384e+18,0.3307898469275,0.36434361196480003,0.16495355437235
1.7177027340072384e+18,-0.018559364505578945,-0.2719926021336842,-0.2015596918326316
1.7177027342072384e+18,-0.24411910475550003,0.1314346391285,0.04988404603244999
1.7177027344072384e+18,-0.41000732183000005,-0.05265007890288,-0.05964498091354999
1.7177027346072384e+18,-0.124629207754,0.15855134204399998,0.06424874849949999
1.7177027348072384e+18,0.08022684696650001,-0.033959153236349994,0.03656652320460001
1.7177027350072384e+18,0.147027212385,0.08152053439749998,0.0383869328505
1.7177027352072384e+18,0.3039617642650001,-0.039120251364245,0.01621164227925
1.7177027354072384e+18,0.19609303409200002,0.06611039624649999,0.00974526974495
1.7177027356072384e+18,-0.10574702416119999,-0.0238155174985,-0.0073161344510500005
1.7177027358072384e+18,-0.23796202516,-0.0010539753115894734,-0.023895563697894733
1.7177027360072384e+18,-0.36655513794,-0.07071070393670001,-0.03344369400359999
1.7177027362072384e+18,-0.3134701967145,0.0844844544978,-0.0183704291239
1.7177027364072384e+18,-0.10355116813710001,-0.026119126542650008,0.005595389966799999
1.7177027366072384e+18,0.09941969842129998,0.05296337756154999,0.023491080796850004
1.7177027368072384e+18,0.343980155145,0.032680179952549994,0.0941155547335
1.7177027370072384e+18,0.4149256467899999,-0.0021872218233000007,0.0454411643518
1.7177027372072384e+18,-0.028822401169,0.05029646065485001,-0.05538407321935
1.7177027374072384e+18,0.0554642673457,-0.04132712464718499,0.0338652646165
1.7177027376072384e+18,-0.20719132116150002,-0.1242433397115,-0.07677707542145
1.7177027378072384e+18,-0.3476168458421053,-0.0577558045996842,-0.056024337089684205
1.7177027380072384e+18,-0.26263103411500005,0.06553608574610001,0.0271495324834
1.7177027382072384e+18,0.004324090803549998,0.019832799280124998,0.021573392486149996
1.7177027384072384e+18,0.09442315707099999,0.01585919339435,-0.0014746440863000019
1.7177027386072384e+18,0.25639950857500005,0.04256080070604999,0.058423489118969996
1.7177027388072384e+18,0.2834975868399999,-0.0818214587925,0.056658034653599997
1.7177027390072384e+18,0.1849909599765,0.058648920288499995,-0.0280105845074
1.7177027392072384e+18,-0.11084857975050003,0.06808023299100001,0.004800526750735
1.7177027394072384e+18,0.038940362584499996,-0.0165955001818,-0.0231983029288
1.7177027396072384e+18,-0.22684020157526316,0.011779454095789474,-0.04352977825278947
1.7177027398072384e+18,-0.308335252105,0.03041978954665,-0.035586309316499996
1.7177027400072384e+18,-0.23823837192000002,0.04982008631405001,-0.0227602734951
1.7177027402072384e+18,0.0014731631569000023,-0.03878895100304999,0.017079082317299998
1.7177027404072384e+18,0.09542569815850001,0.03180377105729835,0.022826709223649995
1.7177027406072384e+18,0.22820893973000006,-0.028388453891699993,0.017449814828500002
1.7177027408072384e+18,0.28103309871,-0.0006885230998500022,0.033664883021950004
1.7177027410072384e+18,0.20445927102150002,0.10474154335085,0.082726519327
1.7177027412072384e+18,0.060300654401350004,-0.051055242588,0.017487520978249998
1.7177027414072384e+18,0.3834379158473684,-0.03896140699368421,0.02698392817921053
1.7177027416072384e+18,0.1212685687435,-0.25002090670050003,-0.047584719178750005
1.7177027418072384e+18,-0.01529350010595,-0.11322931032000001,-0.00045774094890000115
1.7177027420072384e+18,-0.604099485099,-0.331466210776,0.02142543124385
1.7177027422072384e+18,-0.58778112381,0.13530865525539998,-0.0865396752
1.7177027424072384e+18,-0.505644616485,0.04219612404524999,0.0122249389021
1.7177027426072384e+18,-0.07903055099287301,-0.004440092202800002,0.08181849792550001
1.7177027428072384e+18,-0.016674385964550002,0.06733272354999999,0.042694139317799994
1.7177027430072384e+18,-0.03842089606590499,0.03719553249,0.06619126135450001
1.7177027432072384e+18,-0.03806479252494737,-0.03844892527642105,-0.03160810854147369
1.7177027434072384e+18,0.081249118411,0.01066425874625,-0.0604607910381
1.7177027436072384e+18,0.08072972036950002,-0.018400884373350003,0.006561571440700001
1.7177027438072384e+18,0.028267878713,0.006488441897015,0.021636600162799998
1.7177027440072384e+18,0.02485769193235,-0.012235097351315,0.0032475451699499986
1.7177027442072384e+18,-0.01272962185315,-0.03906359309225,-0.0328554688025
1.7177027444072384e+18,0.0148156835283,0.0604777241125,0.00283287861505
1.7177027446072384e+18,-0.004808167004749999,0.10976461694999998,-0.05288295708600001
1.7177027448072384e+18,-0.003666275558729999,0.0678596191135,-0.025610661692
1.7177027450072384e+18,-0.02564314844626316,0.0017559696551631575,-0.018181862187052634
1.7177027452072384e+18,-0.021164789155699998,-0.012715953506245001,-0.044379516179450004
1.7177027454072384e+18,-0.0056368528635625,-0.06347016609044,-0.044112864207250004
1.7177027456072384e+18,-0.10206666403049999,0.06379658570499999,0.050054409726850005
1.7177027458072384e+18,-0.043422608169500006,0.07504353225250002,0.044864080101
1.7177027460072384e+18,-0.030147234582999997,0.06411342210999998,0.03226573751260001
1.7177027462072384e+18,-0.03241145461865,-0.020493871712735,0.004069841676294999
1.7177027464072384e+18,0.015820783528355,-0.0244965610793,-0.01089710324235
1.7177027466072384e+18,0.020116670452700002,0.006515431505705001,0.0027395550509999997
1.7177027468072384e+18,-0.02851549046983684,0.007377283733263159,0.0014978516724747368
1.7177027470072384e+18,-0.0546132231125,0.019360686326,0.002562259393665
1.7177027472072384e+18,0.026913427047899997,-0.00918378951715,0.005127168726465001
1.7177027474072384e+18,0.21619371566699996,-0.10773091338097503,0.040755702673849994
1.7177027476072384e+18,0.022472979233695005,-0.012689374020727501,0.00239255356129
1.7177027478072384e+18,0.013858925318499998,-0.0091091742504,-0.0020550083368500002
1.7177027480072384e+18,-0.024550152662700005,0.0202638961786,0.017550132982599997
1.7177027482072384e+18,-0.059115105257850006,0.0349056632247,0.003281597792995
1.7177027484072384e+18,-0.1188054543055,0.06861359523699999,-0.027372997627405
1.7177027486072384e+18,-0.07719715764027002,0.032473781566,-0.008995749358999999
1.7177027488072384e+18,-0.0016656928384736831,0.002876109472621053,-0.006548561793442106
1.7177027490072384e+18,0.031358823458,-0.006375125341550001,-0.005141092267335
1.7177027492072384e+18,-0.0032725483144350003,-0.00041047863189734997,0.0007476650409249998
1.7177027494072384e+18,-0.025538090989500002,0.007046258164015,0.000761407427575
1.7177027496072384e+18,-0.024008543604,0.0087561114922,0.000909933680665
1.7177027498072384e+18,-0.0285750218665,0.007359261787649998,-0.001699774025405
1.7177027500072384e+18,-0.016900372376799998,0.003564985847315,-0.001649448624735
1.7177027502072384e+18,-0.015397245332549997,0.0060339488553,-0.00012468413911999996
1.7177027504072384e+18,-0.0024059531483699996,0.002811761514666,0.00024177373846999994
1.7177027506072384e+18,-0.0010632471684342104,-0.0005459698242157895,-0.0009695481459684211
1.7177027508072384e+18,-0.0019320285180350002,0.0005265080342,-0.0003832533024344999
1.7177027510072384e+18,0.0138432689832,-0.001173323020358,0.0017102935933499999
1.7177027512072384e+18,0.023546743207999998,-0.004292825085605001,0.001620231475658
1.7177027514072384e+18,0.025316716544499997,-0.00695830914185,-0.0010113342198935
1.7177027516072384e+18,0.01874057159295,-0.00250032145704,-0.0008494157343450001
1.7177027518072384e+18,0.020751515497000002,-0.0009853475494209997,0.0008479679235639999
1.7177027520072384e+18,0.00316293851024,-0.00105400324097,-0.000496377062475
1.7177027522072384e+18,-0.01442907541105,0.0015580198669415003,-0.00011442316462749997
1.7177027524072384e+18,-0.036422537148947366,0.008906606928210527,0.0005205739411421053
1.7177027526072384e+18,-0.0270245594895,0.0070716770018499995,0.00015202848001489994
1.7177027528072384e+18,-0.019726804502499997,0.0020749579941,-0.002046064403815
1.7177027530072384e+18,-0.010518875065550002,0.0024100101058149997,-0.00041972683982999996
1.7177027532072384e+18,-0.00784804344347,0.003319106460499,-3.962789194999995e-05
1.7177027534072384e+18,-0.000153600215,4.965890261999998e-05,0.0010788193204815
1.7177027536072384e+18,0.000292506109685,-0.000753900903567,-0.00011512821076999995
1.7177027538072384e+18,0.00970607660736,-0.0011088804750949998,-0.00017098756506999995
1.7177027540072384e+18,0.01709102373555,-0.0029298563720805,0.0023461275966799996
1.7177027542072384e+18,0.022104839353157893,-0.0055147517767368415,6.94172800709474e-05
1.7177027544072384e+18,0.024922998528,-0.007459109276649998,0.00032102584374500004
1.7177027546072384e+18,0.0173182309844,-0.003213521747915,-0.0014839347917849999
1.7177027548072384e+18,0.00986061091485,0.0004134746792114999,0.0014352234312585
1.7177027550072384e+18,-0.010897764757555,0.0014090093900699997,-0.000460087810545
1.7177027552072384e+18,-0.011381963605415,0.0090667946498,3.647429397999999e-05
1.7177027554072384e+18,-0.020893587190930003,-0.0013730523179850001,-0.006963955867500001
1.7177027556072384e+18,-0.038325370196,0.008512798359250002,0.00724048604016
1.7177027558072384e+18,-0.014459565468950001,0.0012240836977629999,-0.0018329372630135
1.7177027560072384e+18,-0.006010688663578949,-0.0004123533175157895,-0.00042158176526052625
1.7177027562072384e+18,-0.00689226608945,0.0034233973593949993,0.000831705716025
1.7177027564072384e+18,-0.00029216232350999993,-0.000732646818546,-0.00038281184383499997
1.7177027566072384e+18,-0.00033328583229449987,-0.0010585280192815,-0.00061633476286
1.7177027568072384e+18,0.0128964334029,-0.00260319734811,0.0008600973523500002
1.7177027570072384e+18,0.016874041220949997,-0.004378575616265,0.0008201013784699998
1.7177027572072384e+18,0.030062224063999998,-0.0043463212029,0.0009042413439425001
1.7177027574072384e+18,0.033426284603999996,-0.0076031542849,-0.0008333300240679997
1.7177027576072384e+18,0.0345983399075,-0.00912547823955,-0.0013553738128539998
1.7177027578072384e+18,0.02299909171105263,-0.0042847703259526315,5.9412890357894704e-05
1.7177027580072384e+18,0.0331210156915,-0.003629717585799999,-0.000630839378515
1.7177027582072384e+18,0.0313710362645,-0.0068409190513000016,6.797735069999887e-06
1.7177027584072384e+18,0.031637167838,-0.00608761894391,0.0008819182287095001
1.7177027586072384e+18,0.016506986367299997,-0.000434624403645,-0.0008228027729549999
1.7177027588072384e+18,0.0227021436665,0.000604085848367,0.0014052979763615001
1.7177027590072384e+18,0.015502679488050003,-0.0016479222569999996,-0.002742332185605
1.7177027592072384e+18,-0.0407672766605,0.00788478318115,0.0014647855190150004
1.7177027594072384e+18,-0.0478422487155,0.009981242311449999,-0.00046719715477500003
1.7177027596072384e+18,-0.042090975865000005,0.0100795323025,0.0016502482350855
1.7177027598072384e+18,-0.03973760397052632,0.00727767328231579,-0.001105476391363684
1.7177027600072384e+18,-0.038925891554999995,0.006424997327649999,-0.0017809709882735004
1.7177027602072384e+18,-0.034133575298,0.0069697446887000015,-0.00029294680571999987
1.7177027604072384e+18,-0.0276812305675,0.0056239427066999996,0.00037632647431500005
1.7177027606072384e+18,-0.015988194802999997,0.001472659429335,0.000681773270508
1.7177027608072384e+18,-0.01564357768445,0.002916799503135,-0.0010425816056825001
1.7177027610072384e+18,-0.007045053495985,0.00233996281169,0.00063822444066
1.7177027612072384e+18,-0.00400390410205,-0.00019745088070199996,-0.000682704814257
1.7177027614072384e+18,-0.0015294089825722,-0.0003542724705615,-8.166243791450005e-05
1.7177027616072384e+18,-0.002234909640591052,0.0012366270560894735,-0.0010475066589505264
1.7177027618072384e+18,-0.0026937454010999996,0.0009966106706960002,0.0010655053193349999
1.7177027620072384e+18,-0.0007903206628712998,-0.00031469540552339,-0.0004952119080299999
1.7177027622072384e+18,0.007549861469500001,-0.001876501360775,0.0001447211253395
1.7177027624072384e+18,0.0153182439039,-0.00298613759215,-0.00015682891245000002
1.7177027626072384e+18,0.0183096494525,-0.0016799191013745,0.0019330073730155003
1.7177027628072384e+18,0.024642208218,-0.004216258810000001,0.001039460836895
1.7177027630072384e+18,0.0238880191005,-0.00500972985745,-0.00044279393038300005
1.7177027632072384e+18,0.012803988367500001,-0.0020706578332714996,0.0008568889810649998
1.7177027634072384e+18,-0.006923754877015789,0.001146208641926316,-0.0016862797353789474
1.7177027636072384e+18,-0.01998765082,0.0049902879865,0.0004180717514814999
1.7177027638072384e+18,-0.022096054022999998,0.00447575182185,0.000398499728229
1.7177027640072384e+18,-0.021623127814000002,0.0027533938468999996,-0.001972077577369
1.7177027642072384e+18,-0.015479996707999997,0.0026760801119200006,-2.769291171200001e-05
1.7177027644072384e+18,-0.0133998224512,0.0032011703617100006,-0.0003164671128405
1.7177027646072384e+18,-0.001988557630091,0.0015405216981809996,0.0007018740870144999
1.7177027648072384e+18,-0.0008039351669325,-0.0009282731043749997,-0.0007121783565100001
1.7177027650072384e+18,0.0028204714472840004,-0.0008157765581095,-4.067735279500002e-05
1.7177027652072384e+18,0.01782953151052632,-0.0038263941563684207,-0.000704956976236842
1.7177027654072384e+18,0.022998405248000002,-0.003929015577785,0.001417613448609
1.7177027656072384e+18,0.028879699111500002,-0.00522201393045,0.001259039784767
1.7177027658072384e+18,0.0265310581785,-0.0062707938485999995,-0.0009051940519785001
1.7177027660072384e+18,0.020364537975000003,-0.00454105286615,0.00045913881619149996
1.7177027662072384e+18,-0.0024401434930039997,0.001389581550025,-0.0008543658652700001
1.7177027664072384e+18,-0.006113514536940001,0.0024700774142,0.0008991119219246
1.7177027666072384e+18,-0.011539372895700001,0.0012455539661240002,-0.0007007946493067999
1.7177027668072384e+18,-0.0190501052415,0.003145639385955,-0.0009030198562850001
1.7177027670072384e+18,-0.02991926199578947,0.007419594146947368,0.0011518264532578947
1.7177027672072384e+18,-0.025211228336,0.0047729061335,-0.00033435468795850004
1.7177027674072384e+18,-0.0169647320635,0.0017810552206304,0.0005358404014194
1.7177027676072384e+18,-0.012279733037649999,0.0025839029053450003,0.0001791456365594999
1.7177027678072384e+18,-0.00240408878589,0.0011767288931694999,0.00067064614279
1.7177027680072384e+18,-0.0011566626082435,-0.0004722971759964999,-0.000813665415545
1.7177027682072384e+18,0.0018743524040035,-0.0007182136876814998,-0.0005206206696450001
1.7177027684072384e+18,0.0089376618156,-0.00134999139704,0.0016664853783949995
1.7177027686072384e+18,0.021489761675999995,-0.004401567694645,0.001505770254857
1.7177027688072384e+18,0.024756617745789477,-0.005455520714842105,0.00012729429683315787
1.7177027690072384e+18,0.027123003638,-0.006118780630599999,0.0007636960827569999
1.7177027692072384e+18,0.0286862438545,-0.0070530389205,-9.141346673499996e-05
1.7177027694072384e+18,0.046542820521,0.005939743206029999,-0.005997360404584999
1.7177027696072384e+18,0.028640316962250008,-0.03393587301235,0.020457010459700005
1.7177027698072384e+18,-0.012284710858575,0.0004236335513099998,0.00289814640986
1.7177027700072384e+18,-0.023886940347500003,-0.00110779971885,-0.0037829627975999995
1.7177027702072384e+18,-0.004341232380855001,-0.01562483696868,0.004079199116935
1.7177027704072384e+18,0.04159434257405,-0.0254618742497,0.019520511920135
1.7177027706072384e+18,0.041007181303200003,-0.05374032436099999,-0.0134916503914
1.7177027708072384e+18,0.018911319980526312,-0.016521200403210524,-0.016779161426487898
1.7177027710072384e+18,-0.1342565522153,0.049735355467999995,-0.04236951437705001
1.7177027712072384e+18,-0.08931292012055,0.09234963395000001,0.02287149112755
1.7177027714072384e+18,0.011160048132465,0.008621287049849997,0.008218630275200001
1.7177027716072384e+18,0.01192570438185,-0.011608255770749998,-0.008545647748055
1.7177027718072384e+18,0.019813585187500003,0.007380978181050002,0.00622290805884225
1.7177027720072384e+18,0.241987417085,-0.03266005108625,0.057302182862005
1.7177027722072384e+18,0.1033502682356,-0.11022106371500003,0.01576384874005
1.7177027724072384e+18,-0.06330207166815,-0.04282356840525,-0.035498417400399995
1.7177027726072384e+18,-0.11585840544526314,-0.05954947008752633,-0.10177505290294736
1.7177027728072384e+18,-0.134973055499,-0.07970193782150001,-0.11349785788215001
1.7177027730072384e+18,-0.04126284769110001,0.0212818415825,-0.08599731596299999
1.7177027732072384e+18,0.0319423604768,0.11770207947500003,0.022747799708099998
1.7177027734072384e+18,0.005370533184265,0.20418399051500002,0.14110448583350002
1.7177027736072384e+18,0.022856298782075003,0.17330749630999998,0.17987375035000003
1.7177027738072384e+18,-0.031476768329745,0.10435275994650002,0.12133799940599999
1.7177027740072384e+18,-0.06346004884800001,-0.05718815576124999,0.00502500570145
1.7177027742072384e+18,-0.0990034081065,-0.11265687196599998,-0.0992865753421
1.7177027744072384e+18,-0.0045028073518578945,-0.005646554070263157,-0.12868518067526316
1.7177027746072384e+18,-0.005502270440800001,0.1436952907555,-0.053119351805499995
1.7177027748072384e+18,-0.0145682330708,0.0624785750002,0.1012575074925
1.7177027750072384e+18,-0.003932765409185,-0.029502872122650004,0.09946723989600001
1.7177027752072384e+18,0.020697484599285,-0.040920914383450004,0.04368677216406
1.7177027754072384e+18,-0.0268722053561,-0.14681478869400003,0.022757460153050003
1.7177027756072384e+18,-0.02763424395795,-0.10125699171095,-0.0272064414107
1.7177027758072384e+18,-0.0067965513083500005,-0.09784136641985,-0.085376373868
1.7177027760072384e+18,-0.025343620997280002,-0.026820106170800002,-0.07045053336799999
1.7177027762072384e+18,0.05572485325842105,0.08199526036105265,0.008179353082789475
1.7177027764072384e+18,0.01859178435995,0.0028014755516699986,0.018402442591925004
1.7177027766072384e+18,-0.06446585478750001,-0.0042801066132585,0.01000994209885
1.7177027768072384e+18,-0.0788087265555,0.02668322471365,-0.0344489892015
1.7177027770072384e+18,-0.007513964747399999,0.07379708346,-0.00667517755645
1.7177027772072384e+18,0.01194165436851,0.0128431181653,-0.0023839701668
1.7177027774072384e+18,-0.0317985049455,-0.03632704870464,0.009462296053644497
1.7177027776072384e+18,-0.019502868986800002,-0.043717575772150005,-0.0195637772675
1.7177027778072384e+18,0.027975949120800002,0.045717155548564994,0.008960568811235001
1.7177027780072384e+18,0.02660517345578947,0.04373628829947368,-0.005369602384105264
1.7177027782072384e+18,0.034835292213,0.023109357280004995,0.005199029900714999
1.7177027784072384e+18,0.031129363412835,0.0236503016432,0.028291408344500002
1.7177027786072384e+18,-0.0024083980825200003,-0.030365932266,-0.0054430769983
1.7177027788072384e+18,-0.0259681436705,-0.047762566805500006,-0.008599962480454998
1.7177027790072384e+18,-0.0800896920285,-0.04117939361660001,-0.033326814229035
1.7177027792072384e+18,0.0127592823823,-0.05164418518500001,-0.01442836094737
1.7177027794072384e+18,0.27229505963049994,-0.1693408360655,0.030761219678665
1.7177027796072384e+18,0.11057252158050002,-0.11865829683529998,-0.08625535028749999
1.7177027798072384e+18,-0.0050863893739473654,0.08614529983157894,-0.0585100562722
1.7177027800072384e+18,-0.1062849607285,0.0916111963755,-0.04872839378405
1.7177027802072384e+18,-0.008120594690295,-0.026353888071599996,0.0985846823035
1.7177027804072384e+18,0.07339048214365,-0.036160179041250004,0.06422327450049999
1.7177027806072384e+18,-0.05608826507749999,0.016773967305750002,0.0663283731093
1.7177027808072384e+18,0.04890921618835,0.09666652062089,-0.063421148807
1.7177027810072384e+18,-0.021423971211300002,0.0430869280355,0.028613909776249995
1.7177027812072384e+18,0.050961295607900005,-0.0938620083982,0.028181408113550004
1.7177027814072384e+18,-0.11155787594449999,-0.010229048679349999,-0.089559349421
1.7177027816072384e+18,-0.015107165996915792,0.061499149195789485,-0.03741020411594737
1.7177027818072384e+18,-0.034945846082049994,0.07884888351,0.0405698463789
1.7177027820072384e+18,-0.0659545106775,0.055919587612,0.040683331153499994
1.7177027822072384e+18,0.0030455096157850003,0.01512277724645,0.009513103961645
1.7177027824072384e+18,0.0127308751926,0.0036421332303904997,0.004605316720277501
1.7177027826072384e+18,0.0160424758215,0.0031854367348999996,0.002984869841105
1.7177027828072384e+18,0.01148678669665,-0.006480512488850001,-0.001056556089315
1.7177027830072384e+18,-0.000989738025275,0.0015021356026635002,5.6346075024999795e-05
1.7177027832072384e+18,-0.018110646400799995,0.004764792957554999,0.0007825533393645001
1.7177027834072384e+18,-0.029941617417999992,0.0035069277627000003,-0.00116420100676
1.7177027836072384e+18,-0.02645276300526316,0.00644910596838421,-0.0014842585415105265
1.7177027838072384e+18,-0.012039478356,0.0032579919904500002,0.0010137463338500002
1.7177027840072384e+18,-0.006948196806349999,0.0011446387973309997,-0.00043059546736799997
1.7177027842072384e+18,-0.003704135387845,0.0013673470587935001,-0.000676621531555
1.7177027844072384e+18,0.0015928281701500003,0.00026419201744250003,0.001115001260751
1.7177027846072384e+18,0.014846379404000002,-0.001489192998265,0.0017594942822950002
1.7177027848072384e+18,0.015075641684000001,-0.0032396218972999997,0.00106678458388
1.7177027850072384e+18,0.014523470121499998,-0.0019205773278304999,0.0005035500740654999
1.7177027852072384e+18,0.014244688814699999,-0.0022483004373675,-0.0001856137299483
1.7177027854072384e+18,0.012270297903736843,-0.0012128288722578946,0.001485149523116579
1.7177027856072384e+18,-0.0001257457254849998,0.0011841698956265002,0.0001466520829785
1.7177027858072384e+18,-0.0225307440395,0.0023620114720300004,-0.0008308221935055002
1.7177027860072384e+18,-0.029156353790999994,0.0031592492130000003,-0.00152822729434
1.7177027862072384e+18,-0.0188751165755,0.00501687219375,-0.000582814321395
1.7177027864072384e+18,-0.007250185701594999,0.0016673598845249997,0.00067960567543
1.7177027866072384e+18,-0.0040143691237,0.0008735497511199999,-0.0008455766598600001
1.7177027868072384e+18,-0.0016790520458750003,-0.000521420329561,-0.0003275437630225001
1.7177027870072384e+18,0.00942369406025,0.00028661437091499997,0.00093166880544
1.7177027872072384e+18,0.014644607411052633,-0.0013996927576052632,0.0011779860544157896
1.7177027874072384e+18,0.019042514636999998,-0.0017279085878161003,0.0017476330045800002
1.7177027876072384e+18,0.018161924508499995,-0.00376308776905,0.001052357954874
1.7177027878072384e+18,0.015104908309200003,-0.0022755548357799994,-0.0007613233756554999
1.7177027880072384e+18,0.06718833665825,-0.014014770623935002,0.0045616253859679995
1.7177027882072384e+18,-0.014667405553905,-0.005952679295399999,-0.007294761377750002
1.7177027884072384e+18,-0.035833783982700006,-0.031542886773105,-0.010222032665750003
1.7177027886072384e+18,-0.075292724929,0.01969886320935,0.002939185965935
1.7177027888072384e+18,-0.0256969504525,0.037972688395500005,0.010717941041350001
1.7177027890072384e+18,-0.0054544625983526315,0.0019134098976263158,-0.004605278274563158
1.7177027892072384e+18,0.014825176681550001,-0.003954829837157001,0.0006568254437395
1.7177027894072384e+18,0.017849068064000002,0.0004602484288425002,0.0016483226906350006
1.7177027896072384e+18,0.019434989429499998,-0.0026029121945649997,-0.000304045458375
1.7177027898072384e+18,0.017766316048499996,-0.00201594466342,0.000454153376624
1.7177027900072384e+18,0.007199352229280001,-0.0017752590791880005,-0.001386185677211
1.7177027902072384e+18,-0.0053256468585149985,0.001830181296095,0.0008929785107590999
1.7177027904072384e+18,-0.019660366326600003,0.003351830964725,-0.0012612539342900003
1.7177027906072384e+18,-0.029019080475500003,0.0033308655256499994,-0.0009913818794764998
1.7177027908072384e+18,-0.022005599041052627,0.004158599979184212,-0.002123292339542105
1.7177027910072384e+18,-0.009735244454,0.0014650098688300003,0.000817337504095
1.7177027912072384e+18,-0.0034948695566999997,0.00049343056744,-0.00011743127833999994
1.7177027914072384e+18,-0.0030113567336050003,-0.0007262136059,0.000122809922345
1.7177027916072384e+18,-0.00030857545795499994,0.0008692519390265,-0.000717810611188
1.7177027918072384e+18,0.008747656317700001,-0.0007767323695300002,0.0019704286242138496
1.7177027920072384e+18,0.015341620845999998,-0.0024160853762280003,0.0011378578258999998
1.7177027922072384e+18,0.0278270988735,-0.009041173476449999,0.0009137481684300001
1.7177027924072384e+18,0.033105223812,0.000503191698285,0.000621375662805
1.7177027926072384e+18,0.017032239144947368,0.0053324771821684205,-0.0019054866493315788
1.7177027928072384e+18,-0.015662824933255,-0.00161316113374,-0.002254999149605
1.7177027930072384e+18,-0.046755025536499996,0.0059508923207,0.0004410408088850001
1.7177027932072384e+18,-0.026449393667499998,0.002646608394595,-0.0012052843580400003
1.7177027934072384e+18,-0.01169736902235,0.0006223097151499999,9.538682642500002e-05
1.7177027936072384e+18,-0.009631933865850002,0.0022063371871155002,-0.0006889453273985001
1.7177027938072384e+18,-0.0013583853724520002,0.0009755700389989999,0.000649974192535
1.7177027940072384e+18,-0.001113945795846,-0.0006267133575800001,-0.0006576221319935
1.7177027942072384e+18,0.011745325301149998,-0.0023159006026849996,0.0003861344419362
1.7177027944072384e+18,0.016022251182631574,-0.0021184908385259472,-0.0005807044890894736
1.7177027946072384e+18,0.015021628466999998,-0.0017937353462253,0.000791864423141
1.7177027948072384e+18,0.016445540124999998,-0.000824047182625,0.0012764176121085003
1.7177027950072384e+18,0.01566993096,-0.003987940709399999,-1.5627639331999977e-05
1.7177027952072384e+18,0.008326586113799998,-0.0018681616580949998,-0.0009076431627349999
1.7177027954072384e+18,-0.00490885391494115,0.000759116405944,0.0006536545115055
1.7177027956072384e+18,-0.023405035911250004,0.0036710199028,-0.000663358916045
1.7177027958072384e+18,-0.032109532039,0.0027342786487949996,-0.00122485054899
1.7177027960072384e+18,-0.023996612895,0.004813338097285,-0.0005996738211250001
1.7177027962072384e+18,-0.00963381319255,0.00205302571411,-0.00010408136290499996
1.7177027964072384e+18,0.018204987887905266,-0.006870394781105263,0.0014124089290210526
1.7177027966072384e+18,0.029972067616000003,-0.023951459542930004,0.01837130934029
1.7177027968072384e+18,0.04342621983895,-0.08109715897549999,-0.01585723332945
1.7177027970072384e+18,0.05327629204885,-0.059433580190500004,-0.023408865836099996
1.7177027972072384e+18,-0.016027592518300004,0.007332645464110001,0.02159380095517
1.7177027974072384e+18,0.03510569524175,-0.03456283656755,0.0161467681171
1.7177027976072384e+18,0.074658304620325,-0.1489408943835,-0.04856825263765
1.7177027978072384e+18,-0.058089567477750015,-0.026777933631899998,0.025104600866479997
1.7177027980072384e+18,-0.0060591052977000005,0.23059575520999998,0.10120085403799998
1.7177027982072384e+18,-0.13127152268578948,0.02028590763668421,-0.046585987959842104
1.7177027984072384e+18,-0.1698969509137,0.0134245213476,0.01888048193735
1.7177027986072384e+18,0.007981745881375001,0.06147646429895,-0.00945004851085
1.7177027988072384e+18,0.014874273875900002,-0.03761295203555,-0.0363142489224
1.7177027990072384e+18,0.1089438453245,-0.0032087943514599996,0.017176120611015
1.7177027992072384e+18,0.24029591381500004,-0.08398170751049999,0.0010423808124499997
1.7177027994072384e+18,0.028204869594849996,-0.14761701374800001,-0.03842962691529999
1.7177027996072384e+18,0.0751361521886,-0.0333170784934,-0.0615958182135
1.7177027998072384e+18,0.066663583183,0.0439672387429,0.06379134657409999
1.7177028000072384e+18,0.01417248602821053,0.10143372122105263,0.10899998071
1.7177028002072384e+18,-0.100513781987,0.100201469485,-0.010264539346035
1.7177028004072384e+18,-0.143746972075,0.020548287894999996,-0.05774581115699999
1.7177028006072384e+18,-0.10349666252850001,0.035647036881,-0.013593833776910003
1.7177028008072384e+18,-0.049074494094,0.01961201814705,-0.008941905271439999
1.7177028010072384e+18,0.1789949830133,-0.1476750048295,0.026743814103517498
1.7177028012072384e+18,0.094902049005,-0.006235374553700001,0.02604278533235
1.7177028014072384e+18,-0.05108603174125,-0.041075854690799996,-0.0401650384757
1.7177028016072384e+18,-0.1028160894265,-0.044032326201854995,-0.0032192307294500004
1.7177028018072384e+18,-0.06451188341473683,0.014002625468689476,-0.0033704294889473703
1.7177028020072384e+18,-0.020109917920650002,-0.0738332340495,0.0005568011653499997
1.7177028022072384e+18,-0.08188930414950002,-0.20627496019499997,-0.128679790622
1.7177028024072384e+18,-0.112608214474,-0.043391839023800005,-0.1860798306775
1.7177028026072384e+18,-0.020969819838399996,0.16759914383500002,0.08941928277750001
1.7177028028072384e+18,0.0222989267847,0.0234819499765,0.21326483190300002
1.7177028030072384e+18,-0.09756503222929,-0.1287739353094755,-0.010342498171949998
1.7177028032072384e+18,-0.0118890222637,-0.2420260526256,-0.21417608113000003
1.7177028034072384e+18,0.093345432914,0.07659669755870001,-0.07791125812650002
1.7177028036072384e+18,0.22035561423157893,0.2514285649157895,0.1552391264005263
1.7177028038072384e+18,0.12193934106800002,0.18597862683350003,0.18187745959700002
1.7177028040072384e+18,-0.05413923249744999,0.1849996343295,0.11349598093950002
1.7177028042072384e+18,-0.0684993004375,-0.055051684105,0.03152477594134
1.7177028044072384e+18,-0.01302211449904,-0.08669606409399999,-0.05977947965814999
1.7177028046072384e+18,-0.0248939593796,-0.0665161363855,-0.0236445943812
1.7177028048072384e+18,-0.0026779433478000005,0.034525036393500005,-0.004212909331635
1.7177028050072384e+18,0.071097850801,0.050432744483949986,-0.00331888499195
1.7177028052072384e+18,0.21972181611049998,-0.028229687644000006,0.0017663246949499993
1.7177028054072384e+18,0.8957236125947369,-0.05027201439505263,0.024568909386263157
1.7177028056072384e+18,0.8490669414750001,-0.039525444903,0.09788862082904998
1.7177028058072384e+18,0.0226575343414,0.06974982406925001,-0.011862451396499999
1.7177028060072384e+18,-0.41633081137500005,-0.19087955355500003,-0.08260188204595001
1.7177028062072384e+18,-0.04575626579765,0.0071284581875000015,0.10902563696699999
1.7177028064072384e+18,0.0707658919253,-0.0620594958353,-0.1023368055115
1.7177028066072384e+18,-0.1749815583295,0.14336776748145003,-0.022745931756804998
1.7177028068072384e+18,-0.430820581315,0.23193692117999998,0.015378952841450003
1.7177028070072384e+18,-0.35228784531499996,0.18959743379,-0.01525923099855
1.7177028072072384e+18,-0.114623488109,0.0872181443252,0.0154254112146
1.7177028074072384e+18,0.1403209574857895,-0.04276635270036842,0.09395437138889473
1.7177028076072384e+18,0.24579296261000003,-0.041942031909471,0.040495278293799994
1.7177028078072384e+18,0.024320868211000005,-0.26979908720499995,0.030848766488650002
1.7177028080072384e+18,0.03834497397500001,-0.46593173742999994,-0.25846945344999994
1.7177028082072384e+18,0.36317359996924997,-0.08193094543250003,-0.015588805158699995
1.7177028084072384e+18,0.0422275584195,0.47252264918,0.08514126997640001
1.7177028086072384e+18,0.029744851428200002,0.07926986743350001,0.045910784860149996
1.7177028088072384e+18,-0.28234483073449995,0.012516615795949999,-0.06529544198945
1.7177028090072384e+18,-0.30804394036999994,0.03940293328005,0.043599120993499996
1.7177028092072384e+18,-0.20092131588842105,-0.03674673499578947,-0.025451908672947367
1.7177028094072384e+18,-0.004249022204900001,-0.04597703541607501,-0.034856156749525
1.7177028096072384e+18,0.19579377473,0.02727085498615,0.08216278406170649
1.7177028098072384e+18,0.29097351357,-0.11850478126849999,-0.014384415676749997
1.7177028100072384e+18,0.25870694043500003,-0.09110526070500002,-0.057915648751000005
1.7177028102072384e+18,-0.021518729067499992,0.0757163695043,0.03472209060295
1.7177028104072384e+18,0.061462701201500006,0.0107332375368,0.0094019036511
1.7177028106072384e+18,-0.270357565021,0.0031110943063499983,-0.0380847591682
1.7177028108072384e+18,-0.29872090593000006,0.11183838290450002,0.05340721826350001
1.7177028110072384e+18,-0.1169493593573158,0.11043250862776316,-0.005486439350134736
1.7177028112072384e+18,-0.00033808826704999947,0.0204561809895,0.042765522166
1.7177028114072384e+18,0.13455697576895,0.035059581231900006,0.01839700561255
1.7177028116072384e+18,0.22549817635,0.003378714552,0.05255055758225
1.7177028118072384e+18,0.266023981575,-0.021401806775135,0.0282962845163
1.7177028120072384e+18,-0.0605693139625,0.02411484615255,-0.03349988106605
1.7177028122072384e+18,0.10985670839205,0.05165533574850001,0.028703277628745
1.7177028124072384e+18,-0.031904468497,-0.048761171427999996,-0.0413982056085
1.7177028126072384e+18,-0.238568639005,-0.05772396596200001,-0.043175935757650004
1.7177028128072384e+18,-0.28539673043684205,0.11874140230315791,0.019340230936947367
1.7177028130072384e+18,-0.24657247998650003,0.0542937583275,-0.03368628104205
1.7177028132072384e+18,-0.02924903469035,0.01030664783975,0.007872961812
1.7177028134072384e+18,0.02910160695945,0.0019675063448500022,0.00930046939965
1.7177028136072384e+18,0.09697165952705,-0.17046581115499998,-0.03800843097308999
1.7177028138072384e+18,0.19041931853,-0.061465497405,0.0966291529347
1.7177028140072384e+18,0.1912736918745,-0.15204790355455,-0.1478984143565
1.7177028142072384e+18,-0.018135639579900005,0.023872814235,-0.0313812850993
1.7177028144072384e+18,0.251314153525,-0.04379404857850001,0.045443095429949995
1.7177028146072384e+18,0.21509081516842105,-0.009733741784894737,0.05103939369736842
1.7177028148072384e+18,0.016044099210734998,0.0660011378085,-0.0032523165453500007
1.7177028150072384e+18,-0.1474882736805,0.134223506032,0.014608962810249999
1.7177028152072384e+18,-0.164506498351,0.0755596511012,-0.04229150887095
1.7177028154072384e+18,-0.4159513253599999,-0.31664339509449996,-0.08233720860215
1.7177028156072384e+18,-0.4714320391449999,0.014195541129950006,-0.026736777273499997
1.7177028158072384e+18,-0.17252173638774998,-0.018423548398400002,-0.017061120600949997
1.7177028160072384e+18,-0.007520758729399999,0.014782748719800001,0.018405987158000004
1.7177028162072384e+18,-0.03316339885515,-0.1446866583175,0.004821183124455
1.7177028164072384e+18,0.02546558754726316,-0.006535809456778947,-0.015866819794105265
1.7177028166072384e+18,0.008883854303584997,0.042012461368000006,-0.018833550950100003
1.7177028168072384e+18,-0.01491681567845,0.039083230034899996,0.039667047209449996
1.7177028170072384e+18,-0.0233601811691,-0.024031146700200002,-0.025836784839850004
1.7177028172072384e+18,-0.04145725522459999,-0.015681584593460002,-0.07823766116435
1.7177028174072384e+18,0.08889867824034998,0.06745378305515001,-0.4382487612109999
1.7177028176072384e+18,0.29498525857999996,0.04899686536850001,-0.76868660679
1.7177028178072384e+18,0.4111321728799999,-0.17856316359805,-1.03369203948
1.7177028180072384e+18,1.069558339515,1.27524139955,-0.8402177736299998
1.7177028182072384e+18,0.6137596325368421,7.273948267947368,-0.016250774463684215
1.7177028184072384e+18,-1.7204566017,7.785674142749999,0.14087535946065002
1.7177028186072384e+18,-4.93654764895,7.4142282248499995,1.0363852621665
1.7177028188072384e+18,-2.4001679121999997,5.44011093385,2.125883302085
1.7177028190072384e+18,1.8594864453900002,1.8682404339249998,3.0039441049499995
1.7177028192072384e+18,-1.77787478115,0.21284303372099997,1.545984527465
1.7177028194072384e+18,0.6227372984780001,1.0625180830465,1.0229738429299997
1.7177028196072384e+18,0.0157591330831,0.024305634848999995,0.064508653665
1.7177028198072384e+18,0.20277082175299999,0.11611226518124998,-0.018579215348249998
1.7177028200072384e+18,0.14251199795157893,0.06887131535947894,-0.021203033776315793
1.7177028202072384e+18,,,
