Timestamps,Acc_X,Acc_Y,Acc_Z
1.7176155602373745e+18,-0.9073306961600001,2.5709187470500003,10.257771354800001
1.7176155604373745e+18,-0.8228014756101499,2.2177731168999997,9.543613952399998
1.7176155606373745e+18,-1.471507484444,1.0848615188555,9.509971412049998
1.7176155608373745e+18,-0.5180876312585,1.29958998882,9.049963005150001
1.7176155610373745e+18,-0.73785312650765,1.61939994054,9.52100347185
1.7176155612373745e+18,0.409084304825,1.1200683060155001,10.08081683335
1.7176155614373745e+18,-2.8668234099339998,2.539551475425,8.50002161395
1.7176155616373745e+18,-5.88777381135,3.3768952103,7.031440544249999
1.7176155618373745e+18,-3.8475090636500004,7.7405010453,5.96696662895
1.7176155620373745e+18,-5.18554660035,7.44631031815,5.0826805114499995
1.7176155622373745e+18,-7.5246798477,7.5608521271,1.67188829044
1.7176155624373745e+18,-4.94714485925,10.893506835350001,1.9697463912700002
1.7176155626373745e+18,-4.935229637099999,9.0734117436,-0.1932032317965
1.7176155628373745e+18,-0.21198916623805003,9.29266829605,-4.6583504104
1.7176155630373745e+18,1.7469347304849996,8.102403465150001,-4.1418345108245
1.7176155632373745e+18,-2.014780242925,8.305523575250001,5.55151306905
1.7176155634373745e+18,1.90818690519,3.7791686781499996,9.103117470250002
1.7176155636373745e+18,0.5821630699197895,1.8171107723315791,6.923757235894737
1.7176155638373745e+18,-4.8545174789450005,1.8518216171235,11.9080745312
1.7176155640373745e+18,-0.8301362229365999,4.26189983371,9.910718055600002
1.7176155642373745e+18,-2.639131896935,-0.27199188998100016,7.949885628500001
1.7176155644373745e+18,-7.245817245549999,-2.032263885465,6.1925774691
1.7176155646373745e+18,-8.249757041900002,-3.7140989913000007,4.9288379288
1.7176155648373745e+18,-3.0288315124350005,-7.142060508649999,4.70999301915
1.7176155650373745e+18,-3.0667850876000005,-8.311997612,4.709042495699999
1.7176155652373745e+18,-3.9605689545050007,-8.71157668245,5.018493988
1.7176155654373745e+18,-0.429284797684,-9.5266841582,3.524742759685
1.7176155656373745e+18,1.587396492085,-7.10496764385,2.2426888046310003
1.7176155658373745e+18,-0.4887411575250001,-8.5750231476,4.9652347413
1.7176155660373745e+18,1.0547216949705,-9.096276694249998,4.874171607919999
1.7176155662373745e+18,0.667694023173,-8.374103462299999,5.5209690857
1.7176155664373745e+18,0.683658325221,-8.0510153275,5.571788406250001
1.7176155666373745e+18,0.5561983795150001,-7.9366157227,5.8279132919
1.7176155668373745e+18,-0.01935475157749999,-7.8930188827,6.1727212601
1.7176155670373745e+18,-0.7663668582236841,-6.344973979842105,7.440600875052631
1.7176155672373745e+18,-0.08483608246600001,-4.0020102768,8.8531971817
1.7176155674373745e+18,-0.13138179015950002,-3.2978745346000005,9.150785842999998
1.7176155676373745e+18,-0.2810929641641,-2.9542940139500002,9.3853106461
1.7176155678373745e+18,-0.26898314667150003,-2.8728483810000003,9.3521022034
1.7176155680373745e+18,-0.40757993315999996,-2.8718828888,9.370162147550001
1.7176155682373745e+18,-0.678374313355,-2.8283159867,9.389007957450001
1.7176155684373745e+18,-1.0796149292400001,-2.8352166366,9.483139709400001
1.7176155686373745e+18,-0.67294061279,-3.3060774764,9.2170455552
1.7176155688373745e+18,-1.3020448837110001,-2.86529658495,9.376142211849999
1.7176155690373745e+18,-2.5370816116499997,-3.6057393265499997,8.87381680295
1.7176155692373745e+18,-2.345614768915,-3.28056303405,9.3030492094
1.7176155694373745e+18,1.2994403000649999,-5.160945259099999,8.01090623475
1.7176155696373745e+18,0.3037708053155,-4.03160373685,9.947541480999998
1.7176155698373745e+18,1.05541026306005,-3.00866095735,8.599886444300001
1.7176155700373745e+18,-0.7955356749949999,-2.9859831161700003,8.772185646299999
1.7176155702373745e+18,0.998408798184,-1.6917070769699998,8.696667686399998
1.7176155704373745e+18,-0.03345148989526315,-2.1735826432105263,8.987696830473684
1.7176155706373745e+18,0.7509808272464998,-0.8721613311904999,8.9680009456
1.7176155708373745e+18,1.098550552455,0.710654686007,9.640013489
1.7176155710373745e+18,-0.06979236601199998,1.8756670304000003,10.280306991
1.7176155712373745e+18,-0.16252452851500002,2.3970403290499998,11.724967803499998
1.7176155714373745e+18,-0.89462960821,2.0348609848,10.698911499500001
1.7176155716373745e+18,-0.5699023818875,0.29255912016999996,10.424749121249999
1.7176155718373745e+18,-0.4809124374345,-1.274344985985,10.03099294355
1.7176155720373745e+18,-0.21536464690999998,-1.6532969512999998,6.6199462509
1.7176155722373745e+18,0.0532742157,-1.2623698883849999,8.5876044842
1.7176155724373745e+18,-0.7651488647649999,0.29016410065049997,10.1307529907
1.7176155726373745e+18,-0.86986360934,1.1040291595,10.461445312200002
1.7176155728373745e+18,-1.11400591283,1.597537902875,11.0984606316
1.7176155730373745e+18,-0.5336028670849999,1.8207387544,10.992488503500002
1.7176155732373745e+18,-0.1438807983435,0.276505004849,9.97783099415
1.7176155734373745e+18,-0.18841319275140003,-1.032485435485,9.64182472205
1.7176155736373745e+18,-0.08163274382800001,-2.0819081497,6.9455865785
1.7176155738373745e+18,0.2670761912005263,-1.0699828539736844,8.153260995578947
1.7176155740373745e+18,-0.20049307249349999,0.005897735597499998,10.35631144
1.7176155742373745e+18,-0.71003347777,1.151495452795,10.5031336201
1.7176155744373745e+18,-0.7373067627269999,1.26540108485,10.555607001750001
1.7176155746373745e+18,-0.9205781478949999,1.8075062713499999,11.554629524000001
1.7176155748373745e+18,-0.5306390304749999,0.521358329757,10.0805923007
1.7176155750373745e+18,-0.35161132049700006,-0.780132705735,9.774748306149998
1.7176155752373745e+18,-0.0799562301647,-1.7487235107,8.562119979650001
1.7176155754373745e+18,0.19964733124399997,-2.11383675385,6.861753410300001
1.7176155756373745e+18,-0.0956959991375,-0.945052253705,9.096830543350002
1.7176155758373745e+18,-0.6892192611850001,0.231104415896,10.679190010500001
1.7176155760373745e+18,-0.664221244795,0.9647961960050001,10.601479109699998
1.7176155762373745e+18,-0.9643546143899997,1.3216990127500001,11.895942260499998
1.7176155764373745e+18,-0.82792831424,1.0547216949553,10.39432489045
1.7176155766373745e+18,-0.5766084365850002,-0.8334817657050001,9.799102660900001
1.7176155768373745e+18,-0.4719011764667,-1.574904968305,9.5142225725
1.7176155770373745e+18,-0.4252731399589999,-2.5900789031500002,7.039044731100001
1.7176155772373745e+18,0.30552964783750003,-1.6686999206500002,7.596081367500001
1.7176155774373745e+18,-0.4990306813889474,-0.6897341116342106,10.277013052052633
1.7176155776373745e+18,-0.537779182403,0.493441383365,10.516927436299998
1.7176155778373745e+18,-0.8595126342110001,0.9051003342000001,11.258447936999998
1.7176155780373745e+18,-0.833631454475,0.9968670044349999,11.3327833555
1.7176155782373745e+18,-0.5409750366135,-0.08470884710700002,9.9223862912
1.7176155784373745e+18,-0.73759865576,-1.043165725735,9.631099525349999
1.7176155786373745e+18,-0.4476366348185,-2.2504875869999994,10.149104828499999
1.7176155788373745e+18,-0.31741493224000006,-2.40143369295,9.18672610485
1.7176155790373745e+18,0.14775025178599996,-2.29644202425,9.200183120750001
1.7176155792373745e+18,-0.8113278351195999,-1.7561331024650002,7.5222698593000015
1.7176155794373745e+18,0.79344751746,-2.621071952805,9.69494924985
1.7176155796373745e+18,0.452157234222,-1.97276261903,10.240691870949998
1.7176155798373745e+18,0.9654548263999999,-0.30011091613314994,9.459705940200001
1.7176155800373745e+18,1.4318100356744998,-2.3592888336464997,9.312165252949999
1.7176155802373745e+18,-0.7509059829646999,-2.848007538,9.7689254148
1.7176155804373745e+18,-0.8009618911449999,-2.5391248625500005,9.53368210605
1.7176155806373745e+18,-0.16469501495599997,-2.2477707366499997,9.555364517200001
1.7176155808373745e+18,-0.006838411026999998,-2.0404936137368415,9.58820070768421
1.7176155810373745e+18,-0.30355375672,-2.095454979,9.68947064215
1.7176155812373745e+18,-0.386271743785,-2.30612688435,9.53323303975
1.7176155814373745e+18,-0.375778564445,-2.2818997651500004,9.560805702249999
1.7176155816373745e+18,-0.3739598464985,-2.6026228179500004,9.44032125095
1.7176155818373745e+18,-0.29097241972849996,-3.1173948442,9.500511085449999
1.7176155820373745e+18,-0.4793706436205,-3.5948195341500004,8.925803695699999
1.7176155822373745e+18,-0.44210563659549995,-3.58417666625,9.1118293533
1.7176155824373745e+18,-0.48026877594500006,-3.572231506399999,9.12161899565
1.7176155826373745e+18,-0.57801551056,-3.6135081711999995,9.121394462600001
1.7176155828373745e+18,-0.506793617245,-3.58198372655,9.136700134300002
1.7176155830373745e+18,-0.581024253855,-3.7757632598,9.037972938549999
1.7176155832373745e+18,-0.3166590042229999,-3.7466562881,9.076689926099998
1.7176155834373745e+18,-0.41251966092000003,-3.8923258667,9.0095620193
1.7176155836373745e+18,-0.31799871827750004,-3.7530105743499993,9.144341743800002
1.7176155838373745e+18,-0.355248756441,-3.65643141165,9.051332656949999
1.7176155840373745e+18,-0.460479927055,-3.7024157869,9.06544081875
1.7176155842373745e+18,-0.5095088918589474,-3.745589952947369,9.035676004526316
1.7176155844373745e+18,-0.4464690628,-3.7489689788500007,9.117554946899999
1.7176155846373745e+18,-0.3468961257935,-3.6678676301500004,9.068030433600002
1.7176155848373745e+18,-0.49040270233000005,-3.6370167846,9.0775730896
1.7176155850373745e+18,-0.40016285705800003,-3.4194142912500007,9.179084495549999
1.7176155852373745e+18,-0.46069697570500007,-3.0219907379499995,9.262917663550002
1.7176155854373745e+18,-0.502894226065,-2.90417823025,9.481942199699999
1.7176155856373745e+18,-0.11851604461450001,-2.72531517785,9.5192595979
1.7176155858373745e+18,-0.30005104066149996,-2.41637262725,9.49739007565
1.7176155860373745e+18,-0.5033283233700001,-2.4419619139999997,9.428226402300002
1.7176155862373745e+18,-0.13277389526400002,-2.4711287613,9.5604015427
1.7176155864373745e+18,-0.14915732574399998,-2.4620202026499998,9.53632411185
1.7176155866373745e+18,-0.28175159453999993,-2.4838597868999996,9.4855122757
1.7176155868373745e+18,-0.32504905701500003,-2.4607104263,9.51717144005
1.7176155870373745e+18,-0.39890547179,-2.4000041656999995,9.498048705999999
1.7176155872373745e+18,-0.271655090335,-2.2428459777999996,9.569749603199998
1.7176155874373745e+18,-0.26530828857499994,-2.30948739615,9.561396972699999
1.7176155876373745e+18,-0.30851633172105264,-2.3310394206842098,9.531090521473683
1.7176155878373745e+18,-0.30921199035,-2.33366212465,9.5421544876
1.7176155880373745e+18,-0.29650341797,-2.2837259673999997,9.553994865449999
1.7176155882373745e+18,-0.30622570037999997,-2.3025867464500007,9.549414390650002
1.7176155884373745e+18,-0.308732986455,-2.2987322616,9.5544813537
1.7176155886373745e+18,-0.29754375458,-2.2883064422,9.55466846475
1.7176155888373745e+18,-0.29880113984,-2.28601620485,9.552228538500001
1.7176155890373745e+18,-0.318305580155,-2.2911205901500002,9.5484189606
1.7176155892373745e+18,-0.290732917795,-2.273659401,9.552512947
1.7176155894373745e+18,-0.30225894928999997,-2.28770020295,9.555514205849999
1.7176155896373745e+18,-0.30639035797,-2.3021975556000003,9.552423133999998
1.7176155898373745e+18,-0.299848960875,-2.2733375702499994,9.5468846512
1.7176155900373745e+18,-0.32313304138500004,-2.2224284363000004,9.56884398645
1.7176155902373745e+18,-0.320947586055,-2.24136405945,9.56510176855
1.7176155904373745e+18,-0.302775375375,-2.2660103074,9.554863059999999
1.7176155906373745e+18,-0.322893539435,-2.2965318375500003,9.549728736850001
1.7176155908373745e+18,-0.3048186264,-2.2679562606,9.55871754465
1.7176155910373745e+18,-0.31923877113157895,-2.275047960789474,9.55302385826316
1.7176155912373745e+18,-0.313777496335,-2.2599553985499994,9.5566443558
1.7176155914373745e+18,-0.32344738771500003,-2.23570582595,9.565229003999999
1.7176155916373745e+18,-0.33427736663999996,-2.23687339785,9.541563217150001
1.7176155918373745e+18,-0.56390734862,-2.0319495393,9.522455452349998
1.7176155920373745e+18,-0.1677187271049,-1.7464183044500001,9.683408248649998
1.7176155922373745e+18,0.06699318694499999,-1.71847890465,9.3923909226
1.7176155924373745e+18,0.2240016860935,-0.7763455811289999,9.786431510899998
1.7176155926373745e+18,1.237693702715,-0.12055181120500005,9.5028611986
1.7176155928373745e+18,-2.5217310333325003,1.102876556385,9.697868178750001
1.7176155930373745e+18,-5.26969411468,1.9282751312545998,6.10991935725
1.7176155932373745e+18,2.9213774642450003,3.0727801208104997,9.4701916347
1.7176155934373745e+18,0.14317726135699999,0.8596698074349998,10.361483184299999
1.7176155936373745e+18,0.18648969268480003,-0.20139868925799997,11.0238632595
1.7176155938373745e+18,0.5117183761635,-0.366363143897,9.98242643765
1.7176155940373745e+18,-0.02657723235450002,-0.5305716705543,10.49752029345
1.7176155942373745e+18,-0.43449396516049993,-0.91081844331,9.552580307000001
1.7176155944373745e+18,-0.4680541763353,-0.478090805055,9.877569488099997
1.7176155946373745e+18,-0.7714877881842105,-0.09393361142052632,9.850140212052633
1.7176155948373745e+18,-0.746737152105,0.01821711730975,9.8786023409
1.7176155950373745e+18,-0.20686981201250002,-0.06967261504525,9.850962318499999
1.7176155952373745e+18,-0.3360436935449999,0.050385223388550004,9.84778143305
1.7176155954373745e+18,-0.379416000375,-0.01880090332645,9.815463638299999
1.7176155956373745e+18,-0.21085901641500002,0.02418221283005,9.838785140899999
1.7176155958373745e+18,-0.1239422607473,-0.07134912872825,9.8272740785
1.7176155960373745e+18,-0.148663352961,-0.0694181442255,9.767144119200001
1.7176155962373745e+18,-0.155234687805,0.087029022219,9.864673805250002
1.7176155964373745e+18,-0.144644210807,0.0643511810265,9.838380981400002
1.7176155966373745e+18,-0.16071329497999998,0.0742381210335,9.83894979855
1.7176155968373745e+18,-0.14648538208,0.07274123383128998,9.826158897350002
1.7176155970373745e+18,-0.08822653198449999,0.0724044342045,9.836457481500002
1.7176155972373745e+18,-0.0808169402975,0.11199710083244999,9.85899311825
1.7176155974373745e+18,-0.0546887741158,0.161955711362,9.850603065500001
1.7176155976373745e+18,-0.08830137634034999,0.097626983638,9.838126510650001
1.7176155978373745e+18,-0.10505902861649999,0.061619361877175,9.823457016050002
1.7176155980373745e+18,-0.040431711299894736,0.02176001297768421,9.79095801905263
1.7176155982373745e+18,-0.0797766037077,-0.026203010558769994,9.81057630165
1.7176155984373745e+18,-0.07986641692755,0.10499166870399998,9.8476018066
1.7176155986373745e+18,-0.11092682648400001,0.07538323974395,9.83408491505
1.7176155988373745e+18,-0.033290771482109995,0.05817652130166001,9.825852035499999
1.7176155990373745e+18,-0.11978091431799998,0.13010195159699997,9.817289840700003
1.7176155992373745e+18,-0.10223739623545,0.16733702088100003,9.841344818150002
1.7176155994373745e+18,-0.1550251236,0.178892990112,9.84222798165
1.7176155996373745e+18,-0.23819966126,0.18970800018499998,9.8313231583
1.7176155998373745e+18,-0.17990338898,0.16090789031500002,9.827812957849998
1.7176156000373745e+18,-0.243865379335,0.19849472809000002,9.840978080750002
1.7176156002373745e+18,-0.21528980256,0.171565727235,9.831996757549998
1.7176156004373745e+18,-0.23769820403000003,0.14465169524450003,9.81967737585
1.7176156006373745e+18,-0.21747525787500002,0.14589411162850002,9.83672692105
1.7176156008373745e+18,-0.212528045645,0.118441200267,9.838425888149997
1.7176156010373745e+18,-0.217310600275,0.1298250274745,9.828224601750001
1.7176156012373745e+18,-0.19256705473449998,0.0718206481922,9.814887336850001
1.7176156014373745e+18,-0.15867004394736842,0.11701718782578947,9.825087047368422
1.7176156016373745e+18,-0.24231610106900003,0.1326391754155,10.032594611800002
1.7176156018373745e+18,-0.0129106521599,-0.11302995299824999,9.69911059595
1.7176156020373745e+18,-0.059583595275549996,-0.2154170379595,9.67551216915
1.7176156022373745e+18,-0.10992391204214999,-0.0489706649815,9.8855404135
1.7176156024373745e+18,-0.0967138824435,0.006084846493904999,9.8675104066
1.7176156026373745e+18,-0.18287471007050002,-0.026128166196799994,9.839151878349998
1.7176156028373745e+18,-0.07423063659599999,-0.01546284484845,9.82101708965
1.7176156030373745e+18,-0.137496574393,-0.021921913146799997,9.818562194799998
1.7176156032373745e+18,-0.10275382233645,0.027991790771040005,9.826869918800002
1.7176156034373745e+18,-0.185090103132,0.07034621428950001,9.852608894499998
1.7176156036373745e+18,-0.173414382935,0.0434321823139,9.81820294195
1.7176156038373745e+18,-0.20392842864999997,0.06297404480365,9.809079414450002
1.7176156040373745e+18,-0.182882194525,0.0904419250519,9.8454762268
1.7176156042373745e+18,-0.16570541381999998,0.144666664131,9.87045927435
1.7176156044373745e+18,-0.19915335845499998,0.047436355591,9.81399668885
1.7176156046373745e+18,-0.196256881715,0.043821372986465,9.81946781165
1.7176156048373745e+18,-0.17263048673157896,0.07121243928526315,9.836951848052632
1.7176156050373745e+18,-0.164724952695,0.01156345367445,9.8390920029
1.7176156052373745e+18,-0.1568588104335,0.02091899871825,9.83106868745
1.7176156054373745e+18,-0.16570541382,-0.049217651366750007,9.795787056
1.7176156056373745e+18,-0.1811083831675,-0.00014220428317500005,9.856867538600001
1.7176156058373745e+18,-0.049561935418250005,0.02624791717685,9.82642085265
1.7176156060373745e+18,-0.148887886040175,-0.025147705080250004,9.802822425999999
1.7176156062373745e+18,-0.15720309448904998,0.07682025146400001,9.918995842000001
1.7176156064373745e+18,0.23230192566949998,0.06676116943086001,9.89231382745
1.7176156066373745e+18,0.9366172943600001,-0.007529342648000002,9.605233314549999
1.7176156068373745e+18,0.9996961212100001,-0.0573682022058,9.76132871245
1.7176156070373745e+18,0.5355188827349999,0.23368654632250005,9.8672559356
1.7176156072373745e+18,0.46464875794000005,0.1334175567664,9.7981596222
1.7176156074373745e+18,0.5432353362999999,0.10574759673834999,9.815635780350002
1.7176156076373745e+18,0.7558382263100001,0.29451255799000003,9.834960594150001
1.7176156078373745e+18,0.597437622075,0.22567819977,9.800644455100002
1.7176156080373745e+18,0.5506898346050001,0.21433927917499998,9.76739110575
1.7176156082373745e+18,0.6653821202368422,0.3818795615789474,9.863328576263157
1.7176156084373745e+18,0.7435487823500001,0.241664955145,9.772645179749999
1.7176156086373745e+18,0.5213583297650001,0.24736061096199996,9.8134503251
1.7176156088373745e+18,0.6356456680300001,0.305514678965,9.798705986050003
1.7176156090373745e+18,0.623887619015,0.3393592987185,9.82231938175
1.7176156092373745e+18,0.56248530578,0.3817436599749999,9.8088399125
1.7176156094373745e+18,0.5746400299300001,0.4024456100450001,9.879141219750002
1.7176156096373745e+18,0.6482195205699999,0.31584320067999994,10.1099462584
1.7176156098373745e+18,0.444133918767,-0.5927149429240001,9.2296493453
1.7176156100373745e+18,0.9240135040150002,-0.43268273163499993,9.963692894549999
1.7176156102373745e+18,0.686524864195,-0.2274894332911,9.771552451999998
1.7176156104373745e+18,0.6303766250699999,-0.09245523834,9.80027771755
1.7176156106373745e+18,0.7580685882449999,-0.0703312454212,9.7996789628
1.7176156108373745e+18,0.54595218658,0.12111314392229999,9.8983013765
1.7176156110373745e+18,0.6132447509700001,-0.17259857941005002,9.5653188172
1.7176156112373745e+18,0.65562911224,0.372672523505,10.022528046
1.7176156114373745e+18,0.6311774597099999,0.4146302719,9.859322433600001
1.7176156116373745e+18,0.25245751189649995,0.10226733398086,9.811122665350002
1.7176156118373745e+18,0.2131331032252631,0.02457258526063158,9.75422125563158
1.7176156120373745e+18,-0.0022004241986499995,0.12027488709699999,9.8482379837
1.7176156122373745e+18,0.045452980048050005,0.1256112899855,9.861597702049998
1.7176156124373745e+18,0.24388783265054997,0.06619235228914999,9.775257247899997
1.7176156126373745e+18,0.059381515496024995,0.1123114471445,9.83691403205
1.7176156128373745e+18,0.257187675485,0.18244809723000002,9.822753479049998
1.7176156130373745e+18,0.15970289611769997,0.20335961150499998,9.86093907155
1.7176156132373745e+18,0.21547691345500003,0.293008186335,9.85808750145
1.7176156134373745e+18,0.1682351532,0.16062348174500002,9.828673667950003
1.7176156136373745e+18,0.14183754731,0.14218183135650003,9.800232811
1.7176156138373745e+18,0.143469154365,0.11979588318500001,9.816818321300001
1.7176156140373745e+18,0.14444213104550002,0.1719324645895,9.8323260727
1.7176156142373745e+18,0.236006721505,0.13420342254599998,9.7961987001
1.7176156144373745e+18,0.174147857666,0.16881145476849999,9.84955524435
1.7176156146373745e+18,0.217654884325,0.21654718780499996,9.83077679445
1.7176156148373745e+18,0.1988839187625,0.16976197816,9.822536430399998
1.7176156150373745e+18,0.199093482965,0.22690564729000004,9.8298038178
1.7176156152373745e+18,0.16186077720000003,0.24477257176842104,9.837621508263156
1.7176156154373745e+18,0.19127224729999998,0.21198916625000003,9.823763877850002
1.7176156156373745e+18,0.17280065920149998,0.22828278350499995,9.8198120957
1.7176156158373745e+18,0.20145108032500003,0.23706951140499996,9.8240707397
1.7176156160373745e+18,0.16245716857499998,0.27556945037,9.811362167350001
1.7176156162373745e+18,0.20166812896000003,0.30273046874,9.84954775985
1.7176156164373745e+18,0.209092689508,0.33207694243499997,9.8502138746
1.7176156166373745e+18,0.25496479796999993,0.280569053655,9.8193779985
1.7176156168373745e+18,0.23189776611,0.27199188995,9.79941700745
1.7176156170373745e+18,0.18860778808999998,0.27079438018999996,9.87097570025
1.7176156172373745e+18,0.117737663269,0.23110441589500003,9.80147522735
1.7176156174373745e+18,0.068198181151,0.21325403595,9.803196647550001
1.7176156176373745e+18,0.14391822051999997,0.26113197327000004,9.81402662655
1.7176156178373745e+18,0.11521540832650001,0.360652519215,10.026457375149999
1.7176156180373745e+18,0.519225265505,0.07994874572857,9.61069695275
1.7176156182373745e+18,0.3076776809665,0.11756552124403999,9.897942123650001
1.7176156184373745e+18,0.35467245482999993,0.13341755676800002,9.84054398375
1.7176156186373745e+18,0.3997791812315789,0.18294325176263157,9.776123078894738
1.7176156188373745e+18,0.2724110183725,0.26395360565430004,9.817379653850002
1.7176156190373745e+18,0.27480603789499997,0.25551116181,9.8699952392
1.7176156192373745e+18,0.11701167297450002,0.1474808120635,9.762571128850002
1.7176156194373745e+18,0.0857940902685,0.1780472488355,9.8238162689
1.7176156196373745e+18,0.19727476503,0.29273126220999995,9.829788848849999
1.7176156198373745e+18,0.180359939575,0.316224906925,9.846194732650002
1.7176156200373745e+18,0.178855567935,0.3894675979650001,9.831368064949999
1.7176156202373745e+18,0.203157531745,0.3547697525000001,9.836704467850002
1.7176156204373745e+18,0.16851956175250002,0.32004196929499995,9.8215559692
1.7176156206373745e+18,0.16360228729499998,0.27248586274000003,9.83271526335
1.7176156208373745e+18,0.16685053252999998,0.22090312959,9.794312622050002
1.7176156210373745e+18,0.1400263137845,0.2583178253100001,10.090576537550001
1.7176156212373745e+18,0.5056784362829999,0.06900650023434998,9.554428962699998
1.7176156214373745e+18,0.3261492690935,-0.09000782777550001,9.71729777525
1.7176156216373745e+18,0.3969295806955,-0.012296928399549994,9.885023986799998
1.7176156218373745e+18,0.386189414977,0.08898994445724998,9.888781174750001
1.7176156220373745e+18,0.2873235602052631,0.027369400823736838,9.76568425968421
1.7176156222373745e+18,0.38428088378950004,0.15733781432900001,9.879590286500003
1.7176156224373745e+18,0.044330314645699996,0.07313042449975,9.8092365879
1.7176156226373745e+18,0.17786762237489998,0.0692983932523,9.83323168935
1.7176156228373745e+18,0.22595512390199998,0.151327812194,9.81952768705
1.7176156230373745e+18,0.19033669281,0.17322727202500002,9.819048683200002
1.7176156232373745e+18,0.22790107727000003,0.23202500153000005,9.8983313139
1.7176156234373745e+18,0.343348503115,0.20313507844499998,9.8462920303
1.7176156236373745e+18,0.03362757110730001,-0.07876620482620002,9.685264388899999
1.7176156238373745e+18,0.16135695649200002,0.262202247612,9.863768188299998
1.7176156240373745e+18,0.24464376068749996,0.14161301422449998,9.85026626585
1.7176156242373745e+18,0.12677137756199996,0.30597871399,9.84192111965
1.7176156244373745e+18,0.10720706176214997,0.25935067749499996,9.8312333451
1.7176156246373745e+18,0.18485808563000003,0.27618317413999993,9.8103517685
1.7176156248373745e+18,0.14979350281550002,0.306974143975,9.837497817949998
1.7176156250373745e+18,0.16321309661650002,0.31444361114999997,9.834346870450002
1.7176156252373745e+18,0.20447479249999997,0.31016999817,9.842961456249999
1.7176156254373745e+18,0.20760249890526317,0.32854310688421046,9.803492479894738
1.7176156256373745e+18,0.22612726594,0.290650588985,9.82841171265
1.7176156258373745e+18,0.21725072478999996,0.33065489959,9.825530204700001
1.7176156260373745e+18,0.26211991881499996,0.33435221099,9.778400711049999
1.7176156262373745e+18,0.1192046127335,0.37887712098,9.8468383942
1.7176156264373745e+18,0.25931325531,0.46732070159999994,9.8347585143
1.7176156266373745e+18,0.200904716493,0.410932960505,9.812080673199999
1.7176156268373745e+18,0.19371965789249998,0.45598926544999996,9.833074516300002
1.7176156270373745e+18,0.15976277160500002,0.4137770462,9.837258316100002
1.7176156272373745e+18,0.156986045825,0.3911366272,9.81295635215
1.7176156274373745e+18,0.165914978025,0.362957725525,9.804521392800002
1.7176156276373745e+18,0.15111076355,0.414690147405,9.827753082300001
1.7176156278373745e+18,0.2025887146,0.4203334121699999,9.821316467250002
1.7176156280373745e+18,0.154620964061,0.44435845183,9.815665718050003
1.7176156282373745e+18,0.19779119109500004,0.47291157532500006,9.81198337545
1.7176156284373745e+18,0.1425859909075,0.493890449535,9.837961853
1.7176156286373745e+18,0.20876337433,0.507766593935,9.82860630795
1.7176156288373745e+18,0.13090672543263157,0.4708419317894737,9.820753952894739
1.7176156290373745e+18,0.17307758331499998,0.4492906951849999,9.82857637025
1.7176156292373745e+18,0.15654446411000003,0.39587427520999996,9.811175056349999
1.7176156294373745e+18,0.157113281245,0.38436321259499995,9.809386276249999
1.7176156296373745e+18,0.168534530645,0.378944480905,9.804970458899998
1.7176156298373745e+18,0.16155155182,0.402400703435,9.821795471350002
1.7176156300373745e+18,0.190890541075,0.440301887525,9.815972579949998
1.7176156302373745e+18,0.18541193390500002,0.46363835908499995,9.82758842465
1.7176156304373745e+18,0.20454963683000002,0.4942122802750001,9.8275884247
1.7176156306373745e+18,0.181482604985,0.44994932557,9.83679428105
1.7176156308373745e+18,0.19906354523999997,0.4591177597150001,9.833314018299998
1.7176156310373745e+18,0.24571403503000006,0.39558986665,9.8296391602
1.7176156312373745e+18,0.18315911864999998,0.31011012269000005,9.759689620950002
1.7176156314373745e+18,0.2380649414,0.346903610235,9.827311500499999
1.7176156316373745e+18,0.243348953245,0.39814954376499995,9.836674530100002
1.7176156318373745e+18,0.35197057342499993,0.39062020111,9.7894327698
1.7176156320373745e+18,0.28165429686999993,0.43297462463,9.839181816099998
1.7176156322373745e+18,0.30073212433999996,0.42034089660999996,9.800128028900001
1.7176156324373745e+18,0.36237275776315786,0.4540374033052631,9.812308357526316
1.7176156326373745e+18,0.31722782134,0.49396529388,9.8297065201
1.7176156328373745e+18,0.36545004273,0.49202682495499994,9.8369813919
1.7176156330373745e+18,0.41344024657,0.46458888245,9.813847000150002
1.7176156332373745e+18,0.33094679261,0.44176883697999997,9.827723144499998
1.7176156334373745e+18,0.29989386749,0.41546104432000003,9.822558883649998
1.7176156336373745e+18,0.219772979735,0.3585044860749999,9.7784531021
1.7176156338373745e+18,0.25178391266,0.34230816651,9.824265335000002
1.7176156340373745e+18,0.44386447907500004,0.34904415893999996,9.78542111215
1.7176156342373745e+18,0.390942031865,0.39670504761,9.8080315933
1.7176156344373745e+18,0.36175273132,0.42393342590499994,9.82068777465
1.7176156346373745e+18,0.28727510834,0.518596572865,9.8291751252
1.7176156348373745e+18,0.31100825499,0.467028808595,9.82617386625
1.7176156350373745e+18,0.32223490905499996,0.504196517945,9.840154792800002
1.7176156352373745e+18,0.327466529855,0.46640760040000007,9.8237339402
1.7176156354373745e+18,0.344860359195,0.4309089202850001,9.8186145859
1.7176156356373745e+18,0.324023689265,0.395118347175,9.82216969295
1.7176156358373745e+18,0.35889840376315785,0.3704323136105263,9.797859457
1.7176156360373745e+18,0.33192725373,0.343236236585,9.809139289899997
1.7176156362373745e+18,0.352846252445,0.33326696778,9.789642333950002
1.7176156364373745e+18,0.343864929195,0.404107154845,9.82479673
1.7176156366373745e+18,0.333686096185,0.43411974334,9.8141089553
1.7176156368373745e+18,0.32067066193500005,0.502325408925,9.838276199400001
1.7176156370373745e+18,0.37598064422999994,0.45094475554499996,9.79866856385
1.7176156372373745e+18,0.3477718048149999,0.490417671205,9.8254029695
1.7176156374373745e+18,0.41096289825000004,0.4954546966550001,9.812716850250002
1.7176156376373745e+18,0.445540992735,0.47950536346500006,9.81806073765
1.7176156378373745e+18,0.4401521987849999,0.476099945055,9.894334625149998
1.7176156380373745e+18,0.80620099644,0.51594708252,9.899588699599999
1.7176156382373745e+18,1.03778441617,-0.041680824281499995,9.65713787845
1.7176156384373745e+18,1.048419799795,0.037541931152999995,9.7035039599
1.7176156386373745e+18,1.4147380371649998,-0.12948822785300002,9.6578339309
1.7176156388373745e+18,0.7794665909849999,-0.0758846969525,9.65296156305
1.7176156390373745e+18,1.058157051155,1.0650277634049998,9.897889732100001
1.7176156392373745e+18,0.43292341533947365,1.1041670307842106,9.80262586094737
1.7176156394373745e+18,-0.05798941040384999,1.05811214451,9.70819670065
1.7176156396373745e+18,-0.14016851806500003,1.53586614985,9.731540657050001
1.7176156398373745e+18,-0.11315718842115,1.37629797375,9.76043058005
1.7176156400373745e+18,-0.1105002135874,1.187098915055,9.8614105913
1.7176156402373745e+18,-0.19498452759,0.9949210510054998,10.561392471549999
1.7176156404373745e+18,-0.630676002481,-0.9759554900699999,11.4149400105
1.7176156406373745e+18,0.57868162540635,-1.5353572081749998,9.9982185976
1.7176156408373745e+18,0.664326026944,-2.1852382736499996,10.288427604599999
1.7176156410373745e+18,-0.2881807250445,-0.288764511141,7.387085975800001
1.7176156412373745e+18,0.16819773102500002,-0.7126829681244999,7.924258918750001
1.7176156414373745e+18,0.668674484252,-0.9743388519014999,8.84985163875
1.7176156416373745e+18,0.35693275453350004,0.494451782244,9.1943228074
1.7176156418373745e+18,-0.07645351408600001,1.3982647934499999,10.185262138799999
1.7176156420373745e+18,-0.0105979614225,2.1835243376999998,10.16926789975
1.7176156422373745e+18,-0.66453559114,2.2216575394,10.594653304200001
1.7176156424373745e+18,-0.17000148010389998,2.5155788268999997,10.95273117845
1.7176156426373745e+18,-0.41246333073947367,1.3595596233157896,10.112702107157896
1.7176156428373745e+18,-0.3798875198149999,-0.014145584107500003,10.147518127900002
1.7176156430373745e+18,-0.23165826417209998,-1.2028311996199998,9.971222236550002
1.7176156432373745e+18,2.20912859361,-1.5354095992974999,8.6878809579
1.7176156434373745e+18,2.023102935875,-0.8618926849199999,8.5975662686
1.7176156436373745e+18,-2.3429727629750006,-2.0393965530499996,7.68796030425
1.7176156438373745e+18,0.5243670730335,-0.8386909332220002,8.8698051453
1.7176156440373745e+18,0.7735763396865,0.9067394256810001,10.00385437705
1.7176156442373745e+18,-0.0558638305605,2.3271955719,10.650045616849999
1.7176156444373745e+18,-0.4100273437405001,2.7724895782499996,11.2861702875
1.7176156446373745e+18,-0.32828981781699995,2.3646252364850002,10.252741813899998
1.7176156448373745e+18,0.141455841067,0.7778274993609999,10.25565326005
1.7176156450373745e+18,0.80930703734,-0.792010505685,8.628806305099998
1.7176156452373745e+18,0.7134613494670001,-0.9489067383200002,7.4201447295500005
1.7176156454373745e+18,-0.034862503014,0.4919819183955,9.03138663485
1.7176156456373745e+18,-0.037901184078499975,1.2871284027049996,10.70336473765
1.7176156458373745e+18,-0.46280758666949995,2.1183049622,10.7452326735
1.7176156460373745e+18,-0.3263686812594737,2.6070496649473682,11.26502951368421
1.7176156462373745e+18,-0.11627819824600001,1.443104049665,10.064508247899997
1.7176156464373745e+18,-0.2341281280447,-0.07110962677250002,10.130341346049999
1.7176156466373745e+18,0.2665132827739,-1.17373171235,8.2176862336
1.7176156468373745e+18,0.31545401001,-0.7976238326825001,7.139433471649999
1.7176156470373745e+18,0.1855915604125,0.47029202271,9.91404862905
1.7176156472373745e+18,0.3660263443125,1.49935707105,10.658989517
1.7176156474373745e+18,-0.035857933051999996,1.98497721865,10.6721845774
1.7176156476373745e+18,-0.06242019653470001,2.3709196471000005,11.021962211
1.7176156478373745e+18,-0.339471565247,0.9858873367350001,10.0369580379
1.7176156480373745e+18,-0.028276199335999997,-0.15086377715899998,10.005456047100001
1.7176156482373745e+18,0.11958631899999998,-1.189815765325,8.75164086925
1.7176156484373745e+18,0.4099300460959999,-1.171097190915,6.9100579605500005
1.7176156486373745e+18,0.05284760284150001,-0.03713777160549999,9.50826496125
1.7176156488373745e+18,-0.163804367035,1.7159416808999999,10.856743286500002
1.7176156490373745e+18,-0.5761069793615,1.88575605025,10.791419127500001
1.7176156492373745e+18,-0.4359983367841,1.9852316895000002,10.835532394649999
1.7176156494373745e+18,-0.4636017247226316,0.9093038297278949,9.975287861315788
1.7176156496373745e+18,-0.20376377103749999,-0.407931701683,9.585788749750002
1.7176156498373745e+18,-0.06936575316909999,-1.366478393525,10.1241517173
1.7176156500373745e+18,0.30804441833,-1.77976146705,8.984496643149999
1.7176156502373745e+18,0.7479571151684999,-1.5884967041400002,6.9793563538
1.7176156504373745e+18,0.15878979492899997,-3.2222218550500004,10.149950569600001
1.7176156506373745e+18,0.41599992369086003,-3.0185104752000003,9.6802797544
1.7176156508373745e+18,0.48554530336349994,-2.3282209395,8.7444857483
1.7176156510373745e+18,0.281474670386,-1.9500323867500005,9.746898720099999
1.7176156512373745e+18,0.43072929381299996,-1.461343620265,10.39125627065
1.7176156514373745e+18,-0.6135141906685001,-0.526140884407,10.327990332949998
1.7176156516373745e+18,-0.5260660400499999,0.08604856109565001,9.721489059599998
1.7176156518373745e+18,-0.30226643372499995,0.8085286560249999,9.912372116700002
1.7176156520373745e+18,0.046448410030695,1.1478131102550002,9.859195198450001
1.7176156522373745e+18,-0.06381978606755001,0.9966873778600001,9.864292099
1.7176156524373745e+18,0.628333374025,0.9553957443449999,9.810486488399999
1.7176156526373745e+18,0.9140966263149999,0.82595242308,9.73245375835
1.7176156528373745e+18,0.5823442720105263,0.6333566123526316,9.790272602263158
1.7176156530373745e+18,0.59118063355,0.5298756179750002,9.745686241249999
1.7176156532373745e+18,0.426859840385,0.401053504935,9.75850708005
1.7176156534373745e+18,0.69791617584,0.80746586609,9.7305377426
1.7176156536373745e+18,-0.010433303835499994,0.454784271238,9.8134877481
1.7176156538373745e+18,0.09579329681724999,1.3173655244,9.817237449650001
1.7176156540373745e+18,0.093488090514,1.3170811158000002,9.77082646185
1.7176156542373745e+18,0.030925689705,1.2834385758000002,9.753035957399998
1.7176156544373745e+18,0.31143486786749996,1.4322441330500002,9.723382621799997
1.7176156546373745e+18,0.35977684022,1.3455294572,9.725178886350001
1.7176156548373745e+18,0.42452469634999995,1.44763961785,9.71508238215
1.7176156550373745e+18,0.42158331299500007,1.4596970445,9.7256204682
1.7176156552373745e+18,0.35204541778500004,1.4976581039499999,9.74512490845
1.7176156554373745e+18,0.39499111176499996,1.3376109236999998,9.772428131200003
1.7176156556373745e+18,0.299085548395,1.32876432045,9.74503509525
1.7176156558373745e+18,0.33385823822000005,1.1125015411,9.67725604245
1.7176156560373745e+18,0.350840423585,1.1615695038,9.76899277495
1.7176156562373745e+18,0.3887652427263157,1.227920211,9.717484492263157
1.7176156564373745e+18,0.37559145355000007,1.1905941468,9.73497601315
1.7176156566373745e+18,0.31662158202000007,1.224086998,9.7564787979
1.7176156568373745e+18,0.374670867925,1.35376233685,9.734339836
1.7176156570373745e+18,0.32490685272000003,1.381746643,9.7460829163
1.7176156572373745e+18,0.283375717155,1.4084136887,9.72734188835
1.7176156574373745e+18,0.28045678713,1.41745488745,9.734564369149998
1.7176156576373745e+18,0.28318860627000003,1.4464121703,9.73392819215
1.7176156578373745e+18,0.26406587218999994,1.4190490722000002,9.73755814355
1.7176156580373745e+18,0.31071636199499997,1.3803171156999998,9.74197396085
1.7176156582373745e+18,0.298239807145,1.3538147278,9.744975219699999
1.7176156584373745e+18,0.338146820065,1.3251044310500002,9.775653923049997
1.7176156586373745e+18,0.36062258148000004,1.2318932647000003,9.72562795265
1.7176156588373745e+18,0.36896024323,1.1395128707,9.745229690550001
1.7176156590373745e+18,0.35703005219,1.0820398865749998,9.728457069349998
1.7176156592373745e+18,0.36265834806999997,1.0985505523,9.698504356399997
1.7176156594373745e+18,0.475935287465,1.1018586731,9.824691947999998
1.7176156596373745e+18,0.47409411620999997,1.1412417756000004,9.744810562100001
1.7176156598373745e+18,0.3551089156263158,1.119277713263158,9.743380641
1.7176156600373745e+18,0.35131194305,1.1285406875999997,9.758260093699999
1.7176156602373745e+18,0.38824763488499997,1.2029509506,9.751598945599998
1.7176156604373745e+18,0.30981822968000006,1.1701616363,9.763529136599999
1.7176156606373745e+18,0.31502739715500006,1.1772044906499999,9.7547124711
1.7176156608373745e+18,0.27199188994999995,1.2055255965499998,9.748230949349999
1.7176156610373745e+18,0.31193632507,1.21993313595,9.744084571799998
1.7176156612373745e+18,0.28148215484500005,1.23925046525,9.76072995755
1.7176156614373745e+18,0.277298355105,1.2550126877000003,9.733988067499999
1.7176156616373745e+18,0.25284670256999997,1.2559706955999999,9.764367393450001
1.7176156618373745e+18,0.242847496025,1.2899275818000002,9.745027610700001
1.7176156620373745e+18,0.21219873046499999,1.2872780915,9.74052198035
1.7176156622373745e+18,0.23471939851000007,1.2732148361,9.748829704250001
1.7176156624373745e+18,0.23821463013500002,1.30060787215,9.742587684650001
1.7176156626373745e+18,0.1861304397535,1.2783641281499998,9.745708694400001
1.7176156628373745e+18,0.15395484923900002,1.3181813277999999,9.74838063815
1.7176156630373745e+18,0.0971255264295,1.2654684448,9.7340554275
1.7176156632373745e+18,-0.04997239765263158,1.3255881621578944,9.756253871
1.7176156634373745e+18,-0.12177925872050002,1.4478716353999999,9.71800131225
1.7176156636373745e+18,-0.03757935333359999,1.3842464448,9.7540538407
1.7176156638373745e+18,0.05237608338014001,1.3505515136499997,9.73552237695
1.7176156640373745e+18,0.15998730468100003,1.4772330779499998,9.7596746522
1.7176156642373745e+18,0.5336777115,1.3866115265999999,9.742804733299998
1.7176156644373745e+18,0.5022805023149999,1.3523926848999999,9.7196553726
1.7176156646373745e+18,0.41022193908499993,1.1381581878,9.684007003700001
1.7176156648373745e+18,0.43195674133999995,1.2249177702999998,9.695637817349999
1.7176156650373745e+18,0.139943984995,1.35497481535,9.7570401306
1.7176156652373745e+18,0.052159034732799994,1.3032199401,9.7488820953
1.7176156654373745e+18,0.30947394561999997,1.3778996428999999,9.74170452105
1.7176156656373745e+18,0.051545310972000005,1.5531551971999997,9.737071655300001
1.7176156658373745e+18,0.360757301325,1.4533876648,9.738882888800001
1.7176156660373745e+18,0.29437783812999996,1.5585065689,9.720501113900001
1.7176156662373745e+18,0.44836262512999997,1.28290718065,9.7436878967
1.7176156664373745e+18,0.34830319977299995,1.4273418272499998,9.73098680875
1.7176156666373745e+18,-0.006586303711052632,1.267477425,9.752708611684213
1.7176156668373745e+18,0.30855335999,1.1452908554500003,9.7686784287
1.7176156670373745e+18,0.22047651672000002,1.1222462767499999,9.7592330705
1.7176156672373745e+18,0.4674928436200001,0.9782457275200003,9.76938945005
1.7176156674373745e+18,0.571653739925,1.00532441726,9.7251788865
1.7176156676373745e+18,0.574235870375,0.8548797683750001,9.720965148949999
1.7176156678373745e+18,0.32933015442499997,1.0463840332649998,9.771185714800001
1.7176156680373745e+18,0.240010894765,1.0817405090250003,9.80219373325
1.7176156682373745e+18,0.09562863922424,1.08892556765,9.770908790599998
1.7176156684373745e+18,0.23962918853600002,0.830794853235,9.71413934365
1.7176156686373745e+18,-0.080772033695625,1.4557602310800002,9.748927001999999
1.7176156688373745e+18,0.21900208282000003,1.22003791805,9.82546284485
1.7176156690373745e+18,0.10530601502349998,1.4202091598000002,9.758043045099999
1.7176156692373745e+18,0.28886929322,1.1509041824100001,9.783041061099999
1.7176156694373745e+18,-0.112513526908895,1.13387709048,9.67271298985
1.7176156696373745e+18,0.08487350463345,1.1020832061549999,9.756374015400002
1.7176156698373745e+18,0.026816734304549998,1.29075835415,9.795831962449999
1.7176156700373745e+18,0.1523122124894737,1.457038493894737,9.761532367789476
1.7176156702373745e+18,0.208059837345,1.2768298188999998,9.754577751149998
1.7176156704373745e+18,0.09276210021155,1.2216395872499999,9.700083572500002
1.7176156706373745e+18,0.1286275177025,1.2113709412,9.7541810761
1.7176156708373745e+18,0.12929363250999998,1.21202957145,9.760131202699998
1.7176156710373745e+18,0.15141762542749998,0.9788295135400003,9.7557752609
1.7176156712373745e+18,-0.218395843507,1.20101996616,9.78619949345
1.7176156714373745e+18,-0.12436138917249999,1.28723318475,9.7812522812
1.7176156716373745e+18,-0.1701287155165,1.34088162235,9.7259946899
1.7176156718373745e+18,0.053528686525500004,1.38605019385,9.747108283950002
1.7176156720373745e+18,0.1483864288405,1.2371922455,9.785750427249999
1.7176156722373745e+18,0.041508682255,1.18117872615,9.7444887314
1.7176156724373745e+18,0.06091582489030001,1.0637329559000002,9.77347595215
1.7176156726373745e+18,0.07616162108600001,1.061300514285,9.78244230655
1.7176156728373745e+18,0.2262919235125,1.0650427321499998,9.7353502349
1.7176156730373745e+18,0.16273409271,0.985138893165,9.77185182955
1.7176156732373745e+18,0.28476033783999993,1.0871891785499999,9.7514642258
1.7176156734373745e+18,0.23263990703157897,1.0206643596263156,9.773688667578948
1.7176156736373745e+18,0.0838855590765,1.04786595142,9.767600669850001
1.7176156738373745e+18,0.25042174530000005,1.07822282415,9.785870178249999
1.7176156740373745e+18,0.28406428527500005,1.067692222625,9.77944104765
1.7176156742373745e+18,0.14058764648900002,1.0962079238499998,9.76938945
1.7176156744373745e+18,0.07655829620162499,0.9939331054749999,9.791790367199999
1.7176156746373745e+18,0.10550809479199999,1.0762244797749998,9.7530060197
1.7176156748373745e+18,0.103337608334,1.0436971206899999,9.76810212705
1.7176156750373745e+18,0.0561632080063,1.08875342555,9.775713798499998
1.7176156752373745e+18,0.11365864563349999,1.1548185425500002,9.798885612549999
1.7176156754373745e+18,0.06655160522315,1.066621948255,9.842153137150001
1.7176156756373745e+18,0.05203179931669999,0.8824748840449999,9.7495556946
1.7176156758373745e+18,0.36179763793499997,0.7785609741200001,9.854547363199998
1.7176156760373745e+18,0.22257964325199997,0.5268593902549998,9.78756166065
1.7176156762373745e+18,0.25664879608499996,0.33284035491999997,9.773341232300002
1.7176156764373745e+18,0.18604062653,0.384842216485,9.8589107894
1.7176156766373745e+18,0.270547393795,0.28544142151,9.7749878083
1.7176156768373745e+18,0.32721166511052635,0.3500667692526316,9.794463886473684
1.7176156770373745e+18,0.29128676605500003,0.39165305327999994,9.8333813781
1.7176156772373745e+18,0.29192294311,0.426672729495,9.796303481950002
1.7176156774373745e+18,0.316397048955,0.482371902475,9.813353027249997
1.7176156776373745e+18,0.397707962045,0.535339256295,9.8326628721
1.7176156778373745e+18,0.13646372223349998,0.6421421585150001,9.881895492850001
1.7176156780373745e+18,0.1688713302505,0.5017940139799999,9.709648681549998
1.7176156782373745e+18,0.15683635712,0.8110883331600001,9.87295907565
1.7176156784373745e+18,0.262531562801,0.585761901855,9.70717881755
1.7176156786373745e+18,0.135415901177,0.9542281722799999,9.8605947878
1.7176156788373745e+18,0.2149380340565,0.816417251585,9.761867591949999
1.7176156790373745e+18,0.10404114533095002,0.95373419953,9.78812299365
1.7176156792373745e+18,0.12359049224599998,0.97940581516,9.8503785323
1.7176156794373745e+18,0.22043909454500002,0.9460925902999999,9.82365161095
1.7176156796373745e+18,-0.005074447624499997,0.5958509216350001,9.766073844949998
1.7176156798373745e+18,-0.037639228822350004,0.60949504853,9.76575201415
1.7176156800373745e+18,-0.0956810302775,0.7195911026050001,9.7968273926
1.7176156802373745e+18,0.07102335879505264,0.8766086618473685,9.778683544000002
1.7176156804373745e+18,0.029765602109860005,1.0049352264250002,9.830477416999999
1.7176156806373745e+18,0.10385403442145,1.0224562911900001,9.7797703629
1.7176156808373745e+18,0.0931812286378,1.12315189365,9.8445780944
1.7176156810373745e+18,0.1159863052345,0.88966742709,9.78756166075
1.7176156812373745e+18,0.23086491395095005,1.143928688105,9.755303741499999
1.7176156814373745e+18,0.2428325271605,0.825001899735,9.7913562701
1.7176156816373745e+18,0.06280938720175001,0.75309143829,9.7776747208
1.7176156818373745e+18,0.197544204714605,0.7059694290059999,9.7800323183
1.7176156820373745e+18,0.2733316040025,0.7071594543399999,9.78857954375
1.7176156822373745e+18,0.16212036895295,0.876352615355,9.729886596800002
1.7176156824373745e+18,0.124099433889,1.178102623085,9.812454894850001
1.7176156826373745e+18,0.1351614303655,0.9817858657600003,9.813914360050001
1.7176156828373745e+18,0.1523082733185,1.1479104081,9.7995666963
1.7176156830373745e+18,0.09451345825749999,1.07818540185,9.792890579100002
1.7176156832373745e+18,0.10410850525149999,0.9906998291300001,9.7932049255
1.7176156834373745e+18,0.10961705016500001,0.9291852493249999,9.780496353150001
1.7176156836373745e+18,0.06828169170210525,0.8667764764105264,9.799348465578948
1.7176156838373745e+18,0.1270408172565,0.78768450165,9.76378360735
1.7176156840373745e+18,0.11206446075749998,0.76446778107,9.747422630299997
1.7176156842373745e+18,0.10877130889499997,0.8906703414900001,9.789193267749999
1.7176156844373745e+18,0.11857592009699999,0.91281678772,9.821548484850002
1.7176156846373745e+18,0.1269360351595,0.996328124995,9.803383758699999
1.7176156848373745e+18,0.13466745758,0.9843979339950002,9.83168989575
1.7176156850373745e+18,0.1176777877695,0.8835750961200001,9.765123321550002
1.7176156852373745e+18,0.113366752634,0.8273669815049999,9.75244468695
1.7176156854373745e+18,0.13187576293949999,0.901702400205,9.809940124550002
1.7176156856373745e+18,0.0994756393465,0.9152267761199999,9.800906410250002
1.7176156858373745e+18,0.11603869628100001,0.91108039855,9.766567817650001
1.7176156860373745e+18,0.1077085189815,0.9419536972949999,9.799993309
1.7176156862373745e+18,0.15035483550999998,0.9523570633049999,9.797007019
1.7176156864373745e+18,0.11121123505549999,0.9810748443800001,9.77855788425
1.7176156866373745e+18,0.1361418914775,0.9757683792200001,9.788190353449997
1.7176156868373745e+18,0.08274792480399999,1.04903352365,9.793302223200001
1.7176156870373745e+18,0.1265736308842105,1.022161246857895,9.801617431578947
1.7176156872373745e+18,0.10657836913900001,0.9521699523949998,9.7909446257
1.7176156874373745e+18,0.12017758941549998,0.922209754945,9.796782486
1.7176156876373745e+18,0.1344728622365,0.8509429550199998,9.808188766499999
1.7176156878373745e+18,0.13631403351200003,0.7964412918000001,9.7892606277
1.7176156880373745e+18,0.149239654542,0.74240366363,9.76894786835
1.7176156882373745e+18,0.11969858550700004,0.7627388763449999,9.79367644495
1.7176156884373745e+18,0.144531944283,0.77329193116,9.7965354997
1.7176156886373745e+18,0.11041788482150001,0.833594032295,9.7896872406
1.7176156888373745e+18,0.126891128539,0.8930803299000001,9.804431579550002
1.7176156890373745e+18,0.11539503479499999,0.957828186065,9.794118026749999
1.7176156892373745e+18,0.12157717896749998,0.9740993499450001,9.783392829899999
1.7176156894373745e+18,0.11883787535599999,1.0061402207,9.7742094268
1.7176156896373745e+18,0.10960956573299999,1.07262446587,9.798458999550002
1.7176156898373745e+18,0.13667328644000004,1.0500439223500002,9.78078076165
1.7176156900373745e+18,0.103337608344,1.10303372955,9.79877334595
1.7176156902373745e+18,0.12334350586299998,1.0379939803049998,9.783056030300001
1.7176156904373745e+18,0.12447011044789474,1.0691556268105262,9.791028924210526
1.7176156906373745e+18,0.13578263854800002,0.9585915985050001,9.78365478515
1.7176156908373745e+18,0.12356055449649998,0.9051377563499999,9.792463966300001
1.7176156910373745e+18,0.1415755920375,0.8627384262050001,9.806407470649999
1.7176156912373745e+18,0.149209716795,0.77499838257,9.8140939865
1.7176156914373745e+18,0.1379082183695,0.74085438537,9.7877412872
1.7176156916373745e+18,0.09050928497350001,0.622256011965,9.705569663999999
1.7176156918373745e+18,0.12365785216800003,0.758644889835,9.872038489849999
1.7176156920373745e+18,0.19147432707599998,0.8271125106699999,9.797807853650003
1.7176156922373745e+18,0.110028694149,0.788769744875,9.81935554515
1.7176156924373745e+18,0.104138442992,0.777924797055,9.782098022449999
1.7176156926373745e+18,0.142421333311,0.826865524295,9.80559166715
1.7176156928373745e+18,0.08052504730049999,0.8209378509449999,9.805569213850001
1.7176156930373745e+18,0.12943583680300003,0.8231083373899999,9.771754532
1.7176156932373745e+18,0.09502239990449998,0.9132434005800001,9.825971786599998
1.7176156934373745e+18,0.11859088898449999,0.8850121078500001,9.7982569198
1.7176156936373745e+18,0.11689940642499999,0.9062229995649999,9.784717574999998
1.7176156938373745e+18,0.10829585024894738,0.8803430015157895,9.791871907947368
1.7176156940373745e+18,0.10434800720349999,0.9380093993999999,9.79486647025
1.7176156942373745e+18,0.12170441436550002,0.900953956605,9.7883026199
1.7176156944373745e+18,0.09972262572650001,0.9098828888,9.793377067449999
1.7176156946373745e+18,0.10722203063950002,0.9530680847699999,9.7842685089
1.7176156948373745e+18,0.116068634037,0.91042925264,9.7572946014
1.7176156950373745e+18,0.12518467712675002,1.027455894515,9.800696846
1.7176156952373745e+18,0.019856208805550002,1.0286010131699999,9.784201148949998
1.7176156954373745e+18,0.095276870727,1.099313964815,9.807313087399999
1.7176156956373745e+18,0.0879271545425,1.01947000125,9.797478538600002
1.7176156958373745e+18,0.0851579132085,0.9761276321800002,9.7983841553
1.7176156960373745e+18,0.13317057037149999,0.8954678649949999,9.79337706755
1.7176156962373745e+18,0.11163036347,0.83088466644,9.796842361500001
1.7176156964373745e+18,0.12054432677799998,0.765276100165,9.7714327011
1.7176156966373745e+18,0.11376342773150001,0.72419403076,9.767256385800001
1.7176156968373745e+18,0.10706485747999998,0.853412818905,9.790196182299999
1.7176156970373745e+18,0.127018363955,0.8834927673399999,9.812731819099998
1.7176156972373745e+18,0.10311977186105263,0.9928931627947367,9.795661396210527
1.7176156974373745e+18,0.10124945068050002,0.9149049453649999,9.778932106050002
1.7176156976373745e+18,0.0759520568805,1.081194145125,9.7958693848
1.7176156978373745e+18,0.078646453858,1.0442883911199998,9.779411109949999
1.7176156980373745e+18,0.07198530578699999,1.07326812745,9.8185172881
1.7176156982373745e+18,0.10017169189349999,0.97560372167,9.770407333549999
1.7176156984373745e+18,0.07455995178349999,0.9198895797450002,9.80514260115
1.7176156986373745e+18,0.0826431427015,0.8657097473049999,9.789021125749999
1.7176156988373745e+18,0.09178163909899999,0.8171731796149999,9.777270561049999
1.7176156990373745e+18,0.09899663543750001,0.80435982514,9.78552589405
1.7176156992373745e+18,0.11918215942350001,0.807765243535,9.77388759615
1.7176156994373745e+18,0.095449012757,0.892144775395,9.79054795085
1.7176156996373745e+18,0.108224945074,0.9441541213950002,9.790562919450002
1.7176156998373745e+18,0.072322105409,1.0777587890700002,9.86905968465
1.7176157000373745e+18,0.10550061035,0.9537416839899999,9.761845138550001
1.7176157002373745e+18,0.13156141661649998,0.92610914613,9.95020594065
1.7176157004373745e+18,0.1148187332105,0.6525829467850001,9.588879822100001
1.7176157006373745e+18,0.11023392527473683,0.8617500866842105,9.79508627631579
1.7176157008373745e+18,0.07245682525799998,0.9267977142649999,9.774037285
1.7176157010373745e+18,0.059276733395500006,1.0066865844650001,9.824572196899998
1.7176157012373745e+18,0.11904743957649999,1.055791969295,9.812267784049997
1.7176157014373745e+18,0.062315414430200014,0.9198147354200001,9.807193336449998
1.7176157016373745e+18,0.07385641479675,0.8418643341049998,9.797134254500001
1.7176157018373745e+18,0.030731094360475004,0.7363188171450001,9.7874194565
1.7176157020373745e+18,0.03237018585012,0.676735221875,9.74799893185
1.7176157022373745e+18,0.0580941925015,0.80157561494,9.79157331845
1.7176157024373745e+18,0.0250504074099,0.9361308059899999,9.7936988983
1.7176157026373745e+18,0.063288391113785,1.000639160175,9.80845072165
1.7176157028373745e+18,0.07358697509199999,0.9952129440300002,9.779283874499999
1.7176157030373745e+18,0.09234297179949999,1.07869434352,9.839428802499999
1.7176157032373745e+18,0.043230102536649995,0.9855580216050001,9.80126566305
1.7176157034373745e+18,0.143027572626,0.797781005865,9.791311363250001
1.7176157036373745e+18,0.079754150391,0.769931419355,9.79728394315
1.7176157038373745e+18,0.134869537359,0.700827621465,9.815665718000002
1.7176157040373745e+18,0.07188997770368422,0.6485224432578948,9.723345987526315
1.7176157042373745e+18,0.03635939026315,0.6589596862699999,9.783699691749998
1.7176157044373745e+18,0.0454904022198,0.88449568174,9.81400417325
1.7176157046373745e+18,0.08157286835300001,0.9706864471300001,9.783070999100001
1.7176157048373745e+18,0.0587902450536,1.05157074732,9.80406484225
1.7176157050373745e+18,0.09931846619050001,1.0960582352500001,9.85595443715
1.7176157052373745e+18,0.08595874786299999,1.03630249796,9.786319244349999
1.7176157054373745e+18,0.08265811156950001,0.83701441956,9.76147840125
1.7176157056373745e+18,0.06425388336150001,0.80455442047,9.74247541805
1.7176157058373745e+18,0.07892337799150001,0.9191411361650001,9.805314743050001
1.7176157060373745e+18,0.0745300140395,0.87442163089,9.789709693999999
1.7176157062373745e+18,0.07081024933492999,0.91997190854,9.794911377149997
1.7176157064373745e+18,0.059112075803835,0.9049281921450001,9.8002402953
1.7176157066373745e+18,0.061828926088500005,0.9448576583500001,9.791483505199999
1.7176157068373745e+18,0.081303428646,0.93743309783,9.784201148950002
1.7176157070373745e+18,0.0534538421635,0.9810898132999999,9.77519737245
1.7176157072373745e+18,0.078264747626,1.0090441817300004,9.827955162
1.7176157074373745e+18,0.05641689099736842,0.9724330781684211,9.76224141968421
1.7176157076373745e+18,0.07339237975800002,0.9745933227700002,9.76053536225
1.7176157078373745e+18,0.06462810516600001,1.045463447415,9.8220125198
1.7176157080373745e+18,0.04933740234475,0.964571662865,9.771410247849998
1.7176157082373745e+18,0.078773689273,0.9894723815500001,9.76327466575
1.7176157084373745e+18,0.0371003494262,1.0113868101999999,9.81433348845
1.7176157086373745e+18,0.06634952545049999,1.0551932143799998,9.797987480100002
1.7176157088373745e+18,0.0572409667965,0.94928096008,9.8059584045
1.7176157090373745e+18,0.0655337219246,0.8487874374299998,9.780503837599998
1.7176157092373745e+18,0.085449806218,0.79986916351,9.787217376700001
1.7176157094373745e+18,0.020028350829849998,0.6989340591500001,9.852945693899999
1.7176157096373745e+18,-0.057502922061500004,0.5898034973149999,9.805741356050001
1.7176157098373745e+18,-0.29263396453565005,0.19225270842750003,9.806983772250002
1.7176157100373745e+18,0.2974165191655,0.30698162842000004,9.812574645950003
1.7176157102373745e+18,0.21348605345680002,0.667140174895,9.835379722550003
1.7176157104373745e+18,-0.50979487609875,1.4972988509999996,9.76851377125
1.7176157106373745e+18,0.18606307980000003,1.0463091888,9.72329280835
1.7176157108373745e+18,-0.14231458169473687,0.7959028063368421,9.741560741263159
1.7176157110373745e+18,-0.8350684661700001,1.5523019714,9.68360284425
1.7176157112373745e+18,-0.264185623172,0.6378311233549999,9.837572662049999
1.7176157114373745e+18,-0.857012832645,0.686285362245,9.79640077985
1.7176157116373745e+18,-0.57830740355,1.104874900785,9.77515246595
1.7176157118373745e+18,-0.92264385225,0.867161727935,9.7494209747
1.7176157120373745e+18,-0.6536831588950001,0.6534286880450001,9.796737579350001
1.7176157122373745e+18,-0.644439880365,1.03323387919,9.92435469835
1.7176157124373745e+18,-0.28918363951905,1.177533805845,10.512361930650002
1.7176157126373745e+18,-0.5532195739900001,-0.9192459182495,10.61595401
1.7176157128373745e+18,-0.24022045896849997,-1.9261196135999998,10.9445432055
1.7176157130373745e+18,-0.46426705170149996,-3.20346585845,9.189787239000001
1.7176157132373745e+18,0.758966720525,-1.6762142943365,8.967342315149999
1.7176157134373745e+18,0.2787278824269999,-1.3355527037614998,7.36976699065
1.7176157136373745e+18,-2.9271704177949998,-1.4280154266794998,8.344974037150001
1.7176157138373745e+18,0.741063949595,-0.71798943325,9.25065815715
1.7176157140373745e+18,1.3939387893900002,0.2110087051445,9.099180656650002
1.7176157142373745e+18,0.3384383191772843,1.2032530855473684,10.158207478210526
1.7176157144373745e+18,0.33032558441300003,1.9765198059,10.141478188049998
1.7176157146373745e+18,0.0019384688845000219,2.4774156875,10.436716736500001
1.7176157148373745e+18,-0.057285873402,2.6709706878999997,11.090220268649999
1.7176157150373745e+18,-0.39950422670735003,1.4874343642049999,10.086272987600001
1.7176157152373745e+18,0.11880045317629999,-0.29115953064399996,10.15359548965
1.7176157154373745e+18,0.5749768295370001,-1.1103160857499998,6.8064209748
1.7176157156373745e+18,0.34223332212600005,-0.0640218658425,8.36534667185
1.7176157158373745e+18,-0.06914870452249999,1.3581781540800002,10.4018916552
1.7176157160373745e+18,-0.276901679978,1.86916305535,10.6241719205
1.7176157162373745e+18,-0.0875679016435,2.499928871,11.309012786999999
1.7176157164373745e+18,-0.35440301512925004,1.747758018545,10.29688501725
1.7176157166373745e+18,-0.002297721861500007,0.01667532348450001,10.147660331549998
1.7176157168373745e+18,-0.45765081023999993,-1.2645777968499998,8.8642217561
1.7176157170373745e+18,0.16612454224400003,-0.8660465469595,6.711391090400001
1.7176157172373745e+18,-0.11566447449255002,0.277193573019,9.909123871
1.7176157174373745e+18,-0.1773212585285,1.2711416474,10.613626350699999
1.7176157176373745e+18,-0.6923418465557896,1.797186415789474,10.735312645105262
1.7176157178373745e+18,-0.3917728042645,1.9080970916000002,10.92583211595
1.7176157180373745e+18,-0.4282743988,0.7194488983445,9.916683150699999
1.7176157182373745e+18,-0.7643255767549999,-0.9159078598499999,9.75732453925
1.7176157184373745e+18,-0.55659505463,-1.9333795165,10.1276319806
1.7176157186373745e+18,-0.14539265443049995,-1.9847751389,9.111065941299998
1.7176157188373745e+18,0.36111655423999994,-1.7689389726000002,7.17907104505
1.7176157190373745e+18,0.35977684018125,-0.11902498626845001,8.48843570695
1.7176157192373745e+18,-0.4616250457750001,1.581453849785,10.4012030863
1.7176157194373745e+18,-0.1056727523725,2.2580842895499997,11.008512679599999
1.7176157196373745e+18,-0.09842033387100001,2.51000292205,11.274898728500002
1.7176157198373745e+18,-0.19663858795550002,0.9672510910319501,10.04242916135
1.7176157200373745e+18,0.215319740309,-0.49570168303500006,10.19350250325
1.7176157202373745e+18,0.5204976196200001,-1.3388383712,7.954698120000001
1.7176157204373745e+18,0.59618023682,-0.7296876067845001,7.146947845450001
1.7176157206373745e+18,0.140071220406,1.107202560455,10.37601047495
1.7176157208373745e+18,-0.013090278672000005,1.8678233413450005,10.57145155375
1.7176157210373745e+18,-0.03665797986868421,2.3109732537894736,11.40754893263158
1.7176157212373745e+18,0.142196800230615,1.7120797119,10.3604428476
1.7176157214373745e+18,-0.4376074905649999,-0.1078956298965,9.7349011686
1.7176157216373745e+18,0.66789610290325,-1.017321968025,9.8489265513
1.7176157218373745e+18,0.6139408035039999,-1.6212036896000002,8.942853241049999
1.7176157220373745e+18,0.69382967381,-1.7343758469000001,8.442518691999998
1.7176157222373745e+18,0.52182236483455,-1.9834728469500003,8.841588821200002
1.7176157224373745e+18,0.24608825687149993,-3.8819150161999993,9.906833632749999
1.7176157226373745e+18,0.658136398336,-3.4950669708,9.596064880350001
1.7176157228373745e+18,0.45748615259700004,-3.3426688843,9.780840637599999
1.7176157230373745e+18,-0.9080716553189999,-3.1932945099000003,9.89851842485
1.7176157232373745e+18,-0.2234179000775,-2.9761335984499997,9.152417450749999
1.7176157234373745e+18,-0.13112731937999997,-2.6802513884,10.208179482250001
1.7176157236373745e+18,-0.959856468213,-0.1512305146125,10.06652904535
1.7176157238373745e+18,-0.325775047275,0.6461837539300002,8.0412107162
1.7176157240373745e+18,-1.22759719842,-1.4735432510200002,9.481889808399998
1.7176157242373745e+18,-0.519689300534,-1.5809523926500002,9.83070943385
1.7176157244373745e+18,-0.2100290318494737,-1.6993924110526313,9.689287864263155
1.7176157246373745e+18,-0.6026093673799999,-1.91444389355,9.652497528100001
1.7176157248373745e+18,-0.60388920593,-2.2691088638,9.55922648615
1.7176157250373745e+18,-0.31050679778900003,-2.4057522125,9.671410697850002
1.7176157252373745e+18,-0.33945659636634995,-2.3283257216999997,9.640986465500001
1.7176157254373745e+18,-0.7506964187499999,-3.26711350255,9.1646994094
1.7176157256373745e+18,-0.26453739167235,-2.49644860835,9.40605750265
1.7176157258373745e+18,-0.29579988097025006,-2.9036543197,9.38331978605
1.7176157260373745e+18,-0.32756382750949997,-3.1459329986,9.377182548550001
1.7176157262373745e+18,-0.308111778273,-3.1999332046499998,9.2409508439
1.7176157264373745e+18,-0.20942200468300004,-3.2436947021500004,9.24714047245
1.7176157266373745e+18,-0.05253325652567499,-3.6550842132499994,9.140921356149999
1.7176157268373745e+18,-0.47925837704,-6.850272285850001,9.500877822099998
1.7176157270373745e+18,0.014295272804500093,-0.59094861609305,9.6185481267
1.7176157272373745e+18,2.790040580815,-5.1119147186,5.04889576725
1.7176157274373745e+18,8.05411388435,-7.54003791025,0.599256340055
1.7176157276373745e+18,11.1127858431,-7.40415797425,4.334940444965
1.7176157278373745e+18,3.321632104105263,-4.963481019536842,10.480392753368422
1.7176157280373745e+18,-4.45100159446,-0.09238787840549999,11.58435770445
1.7176157282373745e+18,-0.6055357818465,0.016323554952499996,10.67469186245
1.7176157284373745e+18,-0.71700897214,2.26347308355,8.864416351300001
1.7176157286373745e+18,-0.725354118365,3.4214500578999996,7.736481903149999
1.7176157288373745e+18,-1.0982431147392309,4.511928933769231,8.239385340615387
1.7176157290373745e+18,,,
