Timestamps,Gyro_X,Gyro_Y,Gyro_Z
1.7176155602474043e+18,-0.07144724497044999,-0.237128408262,0.06441636921845
1.7176155604474043e+18,-0.637704484165,-0.040883446857999994,-0.629670274265
1.7176155606474043e+18,0.0571086023015,-0.1028735895132,-0.3496350575185
1.7176155608474043e+18,-0.13485851047399997,-0.26842458656850005,0.420168816295
1.7176155610474043e+18,0.73880161424,0.4198240157948499,-0.538874864787
1.7176155612474043e+18,0.6183477735855001,0.108659647025,-1.8080744653150003
1.7176155614474043e+18,0.5237336649600001,-0.021456135887499995,-2.4628888815849996
1.7176155616474043e+18,1.6715253531999998,0.030865915209099988,-0.7169675622285001
1.7176155618474043e+18,1.306493222725,1.1778722569000002,-0.7995498623955
1.7176155620474043e+18,1.8802076041500002,1.2382299273700001,0.6012870334060001
1.7176155622474043e+18,1.4733262110649998,0.46188757562000005,1.28179223234
1.7176155624474043e+18,-0.50840658585995,-1.3085406012299998,2.0259756713200003
1.7176155626474043e+18,-0.08843251561849999,-4.8693423331,1.1322525389235
1.7176155628474043e+18,0.9112323663499998,-2.0261717691585,0.48127699420500003
1.7176155630474043e+18,-1.054654140805,3.52235234975,-0.44318055343599994
1.7176155632474043e+18,-5.1234175921,3.2702140084599995,-0.017463731774999984
1.7176155634474043e+18,-1.4456503119150002,0.2296496152945,0.12334634420750001
1.7176155636474043e+18,-0.18399038122631578,0.4409232767789475,0.6806504393299999
1.7176155638474043e+18,1.3069490867905,-0.716594058275,-0.3001631546795
1.7176155640474043e+18,-2.2242040902399998,0.2026545546985,-0.42180516534199997
1.7176155642474043e+18,0.050837925253,3.4048590541,-1.681747359085
1.7176155644474043e+18,-0.5919153451195001,1.4266173116494998,-0.28975741522705
1.7176155646474043e+18,-1.119140560235,-1.1894873056134998,-1.5042281477450001
1.7176155648474043e+18,-1.3163365282355,-0.8879840697720001,-1.48006310913
1.7176155650474043e+18,0.3047985800535,0.7017312746515001,-0.2405874136036
1.7176155652474043e+18,0.08801097754999998,1.3905760570399999,-0.79453695967495
1.7176155654474043e+18,-0.475677114488,0.7746655491124999,-2.1657824337999996
1.7176155656474043e+18,0.005336781439000004,0.5364085227259999,-0.0691824573875
1.7176155658474043e+18,0.9839825406200001,0.31599605182230006,-0.10125425443049998
1.7176155660474043e+18,0.063974453992,0.16306878699549995,-0.12478131374315
1.7176155662474043e+18,0.184623083843,0.0798979271195,-0.06899469707215
1.7176155664474043e+18,0.268515317885,0.041260748473699996,0.0517377610866
1.7176155666474043e+18,0.40270125418999997,0.075115210938,0.202812991285
1.7176155668474043e+18,0.70015012324,0.0782690355545,0.09099597404450002
1.7176155670474043e+18,0.8857318633473684,0.09310896655052632,-0.03723218455121052
1.7176155672474043e+18,0.497809065875,-0.025508871697750003,0.1545008785965
1.7176155674474043e+18,0.3912627994999999,-0.02240712895907,0.1062971903
1.7176155676474043e+18,0.20758291260099998,-0.01800138587185,0.09208145719250001
1.7176155678474043e+18,0.0898934077455,0.0393065677955,0.07092783637550001
1.7176155680474043e+18,0.03573775419509999,0.0915147855895,0.03470164644302
1.7176155682474043e+18,0.0178878270154,0.13653091900249997,0.023288718982499994
1.7176155684474043e+18,-0.019204189852845,0.060432363429765004,-0.0683263897855
1.7176155686474043e+18,-0.0738646142131,0.0277175681403,0.10871221868508998
1.7176155688474043e+18,-0.21978625057999998,0.4110119128550001,-0.26888021750095004
1.7176155690474043e+18,-0.0151650905555,-0.16645048703200002,-0.24078338594499998
1.7176155692474043e+18,-0.27936573848600005,-0.426696091135,-0.10945262592349998
1.7176155694474043e+18,0.167146407813,0.23810810445900002,-0.14708767301235
1.7176155696474043e+18,0.171365138056,-0.735975826535,-0.16643631269084896
1.7176155698474043e+18,0.4037190133745,-0.06354273329299998,-0.20766788385259996
1.7176155700474043e+18,0.21465271893195004,0.6797231991900001,-0.3632334656085
1.7176155702474043e+18,0.15915855285894998,-0.32949106827350005,0.037323446565999986
1.7176155704474043e+18,0.25281440869436844,0.05620267968157895,-0.06731005839447367
1.7176155706474043e+18,0.9098954498700002,-0.039539600628499996,0.0974088824204
1.7176155708474043e+18,0.51047133953,0.18015088531450002,0.105309590641345
1.7176155710474043e+18,0.25719822272,0.13362655932349998,-0.038291566122499995
1.7176155712474043e+18,-0.07887938552900002,0.19167133645099999,-0.1442448800435
1.7176155714474043e+18,-0.48116604760000004,0.038784837227045,-0.03776028175
1.7176155716474043e+18,-0.6487877100700001,-0.06770995790600001,-0.007944518305149998
1.7176155718474043e+18,-0.38334895072999997,0.024126894875040005,-0.0017548397660499982
1.7176155720474043e+18,0.187472130727,-0.13744176081179998,-0.017229153453299995
1.7176155722474043e+18,0.46681612134499995,0.143296463409,-0.045939180302999996
1.7176155724474043e+18,0.37211753203500003,0.12070115101844996,-0.059611987512999995
1.7176155726474043e+18,0.24627387672499998,0.0756207756185,0.013971496675550005
1.7176155728474043e+18,0.03885571761405002,-0.0680984798806,0.03931657224594999
1.7176155730474043e+18,-0.3062493808605,-0.182985066625,0.039314119680900005
1.7176155732474043e+18,-0.57927958369,-0.0728833658842,-0.013436895702431001
1.7176155734474043e+18,-0.437459309395,-0.015576017735400002,-0.03425900628740001
1.7176155736474043e+18,0.14385626632469997,-0.07255455413850001,-0.0628353277201
1.7176155738474043e+18,0.46230061274210527,0.10993847152578948,0.023042723658531578
1.7176155740474043e+18,0.390537624055,0.0908328867,0.02929330162735
1.7176155742474043e+18,0.261058726905,0.12643871950590002,0.028684765566421
1.7176155744474043e+18,0.07034757592285,0.07918414780449999,-0.004418663168085
1.7176155746474043e+18,-0.25732714254,-0.08418742594999999,-0.011927349633
1.7176155748474043e+18,-0.49930990637,-0.10417496245499999,-0.00814535045035
1.7176155750474043e+18,-0.49037816375000015,-0.052634852660658996,-0.008543514274600001
1.7176155752474043e+18,-0.2646847421355,-0.17063443715749999,-0.01541594951245
1.7176155754474043e+18,0.35110292359999995,0.030544339632,-0.009732228655449999
1.7176155756474043e+18,0.457116675375,0.19388258605650002,0.0204345526768
1.7176155758474043e+18,0.347578860825,0.12537407050474997,0.048355681917
1.7176155760474043e+18,0.177257828128,0.055096894247650005,0.021286961270800004
1.7176155762474043e+18,-0.079507028344,-0.05174990242949999,0.013640551802450001
1.7176155764474043e+18,-0.47691770791499993,0.005528253200799997,-0.08307457091399999
1.7176155766474043e+18,-0.48610812872500003,-0.042693638918500004,-0.019097385462149997
1.7176155768474043e+18,-0.42589227855999995,-0.09770750643519999,0.041063278610399996
1.7176155770474043e+18,0.1062194927485,-0.12804140253295,-0.043059423985999996
1.7176155772474043e+18,0.50043346137,0.093633019319,-0.04928309917917
1.7176155774474043e+18,0.41340063120526316,0.073093611478,0.00972181235289474
1.7176155776474043e+18,0.341570131475,0.0960328053456,0.0011246232550750003
1.7176155778474043e+18,0.0170496483738,0.0842703397415,-0.021817105633000003
1.7176155780474043e+18,-0.20970639046700001,-0.056667184339595,-0.0033005752136900006
1.7176155782474043e+18,-0.4978221446350001,-0.0293838068361,-0.0188210266876
1.7176155784474043e+18,-0.4968615800149999,-0.02374728343725,-0.04822721937720001
1.7176155786474043e+18,-0.37780157924,-0.1283820156025,0.010416558198
1.7176155788474043e+18,-0.04591895367375,-0.17580953389405,-0.03109910215705001
1.7176155790474043e+18,0.43593625723799995,0.04518605347205001,-0.06980137575654999
1.7176155792474043e+18,0.170204762362,-0.2407888032025,0.270950560646
1.7176155794474043e+18,-0.151197343973,-0.08242351283449999,0.1732632958809
1.7176155796474043e+18,-0.06806314992525,-0.044444670339499996,0.313247513771
1.7176155798474043e+18,-0.030768118244349996,-0.12554351538549996,0.22509175948899998
1.7176155800474043e+18,-0.238186886012625,0.459250777955,-0.331267340764
1.7176155802474043e+18,0.19598975148349998,0.04137635508899999,0.013073791843499999
1.7176155804474043e+18,-0.06769922943869999,-0.057165228062999986,0.219536549585
1.7176155806474043e+18,0.017768126982415002,-0.0231767148471,0.1134305547915
1.7176155808474043e+18,0.03467350766789473,0.007777384788610526,0.06549332761421052
1.7176155810474043e+18,-0.04992966796,-0.023319260362795004,0.14277390762699999
1.7176155812474043e+18,-0.05075860386500001,-0.010774274854949998,0.11066771428050001
1.7176155814474043e+18,-0.147228623935,0.040648452379,0.038920786808699995
1.7176155816474043e+18,-0.12722271383,-0.00294853466712,0.011991948914000001
1.7176155818474043e+18,-0.305995284775,-0.008638085652364999,0.0567404477875
1.7176155820474043e+18,-0.16969396304849999,0.00851861254716,0.04621947552000001
1.7176155822474043e+18,0.022541732672954996,-0.022971377544349997,0.0813477758305
1.7176155824474043e+18,-0.022423527553000002,0.0059319518167500005,0.009167475276900003
1.7176155826474043e+18,0.006142449577099999,-0.01261159254332,0.033723928265399994
1.7176155828474043e+18,-0.037079112930499994,0.00980432768085,-0.036321967095850005
1.7176155830474043e+18,-0.03294613165835,-0.0036514605208799998,-0.04651605822100001
1.7176155832474043e+18,0.0006305296408020003,-0.0215218425967,-0.02646121145225
1.7176155834474043e+18,-0.04055566504211,0.01270351727674,0.00180558785845
1.7176155836474043e+18,0.096652145499,-0.01436320621035,-0.01156507751215
1.7176155838474043e+18,-0.01714540790125,0.003925384707515001,0.04371924271265001
1.7176155840474043e+18,-0.0223566421832,-0.006998063408210001,0.021135164005950002
1.7176155842474043e+18,0.019828597133210526,-0.0037389159157526315,0.02037040967731579
1.7176155844474043e+18,0.008349873059024002,0.003817219531825,-0.029594100080049996
1.7176155846474043e+18,0.022977635171399998,0.01335364572105,-0.005753485299404501
1.7176155848474043e+18,0.083793014104,0.003970015177269999,-0.058225771875299995
1.7176155850474043e+18,0.13744592480549997,0.0208383881714,-0.048285094276
1.7176155852474043e+18,0.181230410935,0.019372236588,-0.053805226273500005
1.7176155854474043e+18,0.16604625879999999,0.00361268031435,-0.12178578878850004
1.7176155856474043e+18,0.053104003985999994,0.010206398059345,-0.1187145747155
1.7176155858474043e+18,-0.0247857242823,0.025401213997899998,-0.0855275282635
1.7176155860474043e+18,0.049116573017500005,0.003705271725435,-0.06733785164699999
1.7176155862474043e+18,0.023521959479950005,0.005166350740955,0.019504156732150002
1.7176155864474043e+18,-0.003406929727585,0.01036236985899,-0.0308537505331
1.7176155866474043e+18,-0.0012697297444000002,0.0024424079646500002,0.034298325726699996
1.7176155868474043e+18,0.0223714873195,0.00019822858453499994,-0.0270207666783
1.7176155870474043e+18,0.061524721608,0.005528492403339999,-0.04704271303549999
1.7176155872474043e+18,0.0010267286427375001,0.0008573090890599998,-0.007680948567190998
1.7176155874474043e+18,-0.01331115730803,0.0008890855461055,0.006345743743750002
1.7176155876474043e+18,0.003773883989947369,0.0008418373142789473,0.01342640944636842
1.7176155878474043e+18,0.0013375173932105,0.0005403263770779999,-0.0014058343828799997
1.7176155880474043e+18,0.002876204159045,-0.00104936546842,-0.0006812292849249999
1.7176155882474043e+18,0.008614503403299998,0.0020928034442239994,0.0035520415171219504
1.7176155884474043e+18,0.001984670184941,-0.000184010324225,-0.0028048750474824998
1.7176155886474043e+18,0.00136592379113,-0.0003973844127285001,0.004331190325350001
1.7176155888474043e+18,0.00045916879318599993,5.930196070500005e-05,0.003593313554305
1.7176155890474043e+18,0.0028602887904350003,-0.0009202868852674999,0.0026693253662392006
1.7176155892474043e+18,0.00026318553720000007,-0.0008719092918885001,0.0045810578391395
1.7176155894474043e+18,0.001919762011715,0.00021854630471350003,0.0039167308482
1.7176155896474043e+18,0.001178269463674,0.0005214217816999999,0.002488403022375
1.7176155898474043e+18,0.010906710000475,0.0022828093060785004,-0.0011889853747499997
1.7176155900474043e+18,0.0042252893096149996,0.00308332561982,0.0005926170035249999
1.7176155902474043e+18,-0.008155158725090001,-0.00176922801843,0.0020321792341550004
1.7176155904474043e+18,-0.00569631010305,-0.0011304291198000003,0.002311884984365
1.7176155906474043e+18,0.0019683672640400003,-0.00014450788440999998,0.0028346289647199997
1.7176155908474043e+18,0.00035516927330899996,6.569962791000002e-05,0.000703264121019
1.7176155910474043e+18,0.0027966691658473687,-0.0007087307135526317,-0.0007975755358210527
1.7176155912474043e+18,0.004773497668942499,0.00209011659603,0.0005888687563055
1.7176155914474043e+18,0.0040121265861750004,0.001158782577865,5.945855522450003e-05
1.7176155916474043e+18,0.02283680406425,0.0006720745814549994,0.006274957686345001
1.7176155918474043e+18,0.10958936302900002,-0.087587941347,0.07669511493449999
1.7176155920474043e+18,0.17686279715500003,-0.098708874927,0.0519770105842
1.7176155922474043e+18,0.36460565329500005,-0.025661310088049998,0.0427968949085
1.7176155924474043e+18,0.542130531365,0.08298586113699999,-0.0615823418644
1.7176155926474043e+18,0.5213350653500001,0.5090477265315,-0.06177632936235
1.7176155928474043e+18,0.7925256401200002,0.713820695875,-0.5536084018699999
1.7176155930474043e+18,0.12448985706849999,-0.960929373882,0.29128150750400006
1.7176155932474043e+18,-0.741958650915,-0.56597710320605,-0.07306749933149999
1.7176155934474043e+18,-0.549628924593,0.032507418697,-0.30047024043077497
1.7176155936474043e+18,-0.23001748900999996,-0.1151446673065,-0.07578087034149998
1.7176155938474043e+18,-0.2187731489655,0.11393448898807002,-0.1340433604502
1.7176155940474043e+18,-0.0525277692816,0.30237463638500006,-0.27847231551999996
1.7176155942474043e+18,0.049604149775195006,0.23529505728999997,-0.10527006708689998
1.7176155944474043e+18,0.263607924051,-0.1182637665905,0.1464960504794
1.7176155946474043e+18,0.010381207409473684,0.014815813788421053,0.06185611715284211
1.7176155948474043e+18,0.030669435870349992,-0.0663978467695,0.07724395506000001
1.7176155950474043e+18,0.015406291162799998,-0.0399314984685,0.033587213046
1.7176155952474043e+18,0.0006949228585850006,-0.012095919903455002,0.008804188156715
1.7176155954474043e+18,-0.0025034590771599997,-0.02653941372445,0.0117066334001
1.7176155956474043e+18,-0.01565991130741,-0.04242042833899999,0.013998398115684998
1.7176155958474043e+18,-0.00215048542077,-0.015565847561335,0.003697646688785
1.7176155960474043e+18,0.03296683807819999,-0.008143967981040001,0.015883862971950005
1.7176155962474043e+18,0.029352685482900005,-0.0015376267311099999,0.020061470661
1.7176155964474043e+18,-0.00417460880125,0.010011621494950001,0.0077490201684
1.7176155966474043e+18,-0.005805095622903,-0.0049083121408,0.0038791259516900004
1.7176155968474043e+18,0.00921638295995,-0.013661267921699995,0.0059476193273
1.7176155970474043e+18,0.002996668682317999,-0.0016130507911950001,0.0018757350977000001
1.7176155972474043e+18,0.0011844844758150002,-0.0154310190357,0.0295026868595
1.7176155974474043e+18,0.03200978639144999,-0.014244436195755997,0.071411935613
1.7176155976474043e+18,-0.026463717968,0.004329529495015,0.01770464943327
1.7176155978474043e+18,-0.033084750595000004,-0.0014921065488250002,0.011766960517850002
1.7176155980474043e+18,-0.007651539839836843,0.0026531313105536843,-0.002142147087463158
1.7176155982474043e+18,0.022331572045199997,0.0072770789499,0.005644864903318501
1.7176155984474043e+18,0.00260925617781,0.004474805641275001,-0.0028503752778504996
1.7176155986474043e+18,0.007302104166015,-0.000618400378165,0.0007647511549804999
1.7176155988474043e+18,0.012843060312980001,0.001442236686435,0.001699524174985
1.7176155990474043e+18,0.026701734308000002,0.002333847511775,0.00433568756584
1.7176155992474043e+18,0.006471204036100001,0.029076652554750004,-0.00635699201355
1.7176155994474043e+18,0.008437078431900351,0.02046138103935,-0.00027300356913499983
1.7176155996474043e+18,-0.003225726958814001,0.011336974608559999,-0.007681854872700002
1.7176155998474043e+18,0.0034157182614719997,0.0043079381095365,-0.003550732135799501
1.7176156000474043e+18,-0.008060166757844999,0.007000285456440001,-0.00098450047653
1.7176156002474043e+18,-0.0063156399755,-2.4451655182499908e-05,-0.00158585004972
1.7176156004474043e+18,-0.009282379667499998,-0.0008115054140149999,-0.00481485151735
1.7176156006474043e+18,-0.0007742469897850002,-0.0032781714354800004,-0.00046754843807200015
1.7176156008474043e+18,-0.0049823213136100004,-0.007410517649299999,0.007636670954704999
1.7176156010474043e+18,-0.010553247306289999,-0.0075825201225150005,-0.00032060891376499987
1.7176156012474043e+18,-0.00087357627929,-0.011038754158449997,0.00223349881124
1.7176156014474043e+18,0.004528904263574842,-0.003187516535712632,0.0017549897495368423
1.7176156016474043e+18,-0.09003762687620001,-0.024951604939599997,-0.0096411464273
1.7176156018474043e+18,-0.0540469619455,-0.02699005709125,0.001888788421805
1.7176156020474043e+18,0.056745419041950004,0.028021815332075,-0.0026778626254900005
1.7176156022474043e+18,0.010407562256825001,-0.012115972757300001,0.004064769648375
1.7176156024474043e+18,0.002984587623369999,0.015178757943900001,0.0017174513786599997
1.7176156026474043e+18,0.0019434780352000005,0.005298501260335,-0.010745748551365002
1.7176156028474043e+18,0.0018566503542199997,-0.0041068397811850005,0.0009555523057949997
1.7176156030474043e+18,0.013479541684400001,0.0006301058005084998,0.0017028191825894999
1.7176156032474043e+18,0.028566025290499997,0.00909339594411,-0.00019551641287000025
1.7176156034474043e+18,-0.0006516608988000003,0.016200051549950002,-0.000802293606246
1.7176156036474043e+18,-0.0037603817822300005,0.009846581984499999,-0.00034434573020000004
1.7176156038474043e+18,0.019227757304799996,-0.0050643626104,0.005984161841105
1.7176156040474043e+18,0.012668539822155,-0.00416419079467,0.004969327407924999
1.7176156042474043e+18,-0.014086892589850002,0.004199458922315,-0.0014005605946299999
1.7176156044474043e+18,-0.013197218696900001,0.00331725705175,-0.00276430202634
1.7176156046474043e+18,-0.002418514937615,-0.0065094852880625,0.002478545077565
1.7176156048474043e+18,-0.009046468778869998,-0.003846586259105263,-0.00017053396187368436
1.7176156050474043e+18,-0.0090724231203,0.001315960426385,-0.00225368196856045
1.7176156052474043e+18,-0.00861651563839,-0.00497288054188,0.0030779948341650002
1.7176156054474043e+18,-0.008174374122669999,-0.003882422571315,-0.0036578526254850002
1.7176156056474043e+18,0.01094201465028,-0.0060433827631805,-0.003004663577
1.7176156058474043e+18,-0.00203362861641,-0.017927367825044997,0.015603060949899999
1.7176156060474043e+18,0.0105375198694,0.0086528637682,-0.0012279344021510004
1.7176156062474043e+18,0.0038621559873549998,-0.09337548604549999,0.01126299407317
1.7176156064474043e+18,-0.020772971829299998,-0.293446598965,0.1272855805165
1.7176156066474043e+18,0.0678848791628,-0.12293586561804999,0.112996363263
1.7176156068474043e+18,0.0329553679569,0.06974170624595,0.024745287676349998
1.7176156070474043e+18,-0.004816908650865,0.06699366998100001,-0.02589057355685
1.7176156072474043e+18,0.007593522267199999,0.025631338892350003,-0.018501282437000003
1.7176156074474043e+18,0.031262729364699995,-0.0185469211778,-0.025263902475000006
1.7176156076474043e+18,0.010790576990145,-0.008568437184785001,-0.01018208844995
1.7176156078474043e+18,-3.2043690500000065e-05,-0.014608685480059998,-0.00691294667745
1.7176156080474043e+18,0.022910152364149998,-0.00100585230257,-0.033205665460549996
1.7176156082474043e+18,0.015950172325247362,0.007251469706,-0.023626286217736846
1.7176156084474043e+18,-0.04625231504215001,0.006040287559685,-0.004388281586819999
1.7176156086474043e+18,0.028040556993549997,-0.002600973548954999,-0.009357196791649999
1.7176156088474043e+18,0.019057868998095,0.00700186916005,-0.0030011044356999996
1.7176156090474043e+18,0.013448473077249997,0.0044044933045,-0.009765072236453003
1.7176156092474043e+18,0.01613694550005,-0.00946280496653,-0.019882800708930004
1.7176156094474043e+18,-0.037112852464950004,0.018248418066900002,-0.03473950661760001
1.7176156096474043e+18,-0.2705471873235,-0.0008684280607495005,-0.0016966494729550002
1.7176156098474043e+18,-0.14692898984205,-0.03557351231535,-0.03073590057865
1.7176156100474043e+18,0.08522512476954999,-0.04572239012955,-0.00278618042425
1.7176156102474043e+18,0.0664957242095,0.0228171556372,-0.0177570095751
1.7176156104474043e+18,0.06592016462249999,0.0004851768368499997,-0.0133970548627
1.7176156106474043e+18,0.0510990202425,0.040201460291199996,-0.0135547670303
1.7176156108474043e+18,-0.017104057106349997,0.004841717164045002,-0.014896106301149997
1.7176156110474043e+18,0.05068441487205,0.0031565900732999997,0.009669720428185
1.7176156112474043e+18,0.10054767777964997,0.06018908391579999,0.019582923348955
1.7176156114474043e+18,-0.03484018864968001,0.05770788732950001,0.060926411301
1.7176156116474043e+18,-0.045828790124499995,0.06511480975850001,0.076156130992
1.7176156118474043e+18,-0.01442562043663158,0.047154643425263154,0.0795930024063158
1.7176156120474043e+18,0.01147239792,0.026510128379,0.006715914047299998
1.7176156122474043e+18,-0.018052446638025,-0.02457802600765,-0.001683064876175
1.7176156124474043e+18,0.016694688751099997,0.013093813030350001,0.0037677841490500004
1.7176156126474043e+18,0.014372211168139998,-0.02376352654505,0.02598978886475
1.7176156128474043e+18,0.02922499585,-0.01670841117045,0.0169459051448
1.7176156130474043e+18,0.024142896197349994,0.0134339875703,-0.01234261347038
1.7176156132474043e+18,-0.022415223019,0.0163302492357,-0.013221448124074997
1.7176156134474043e+18,-0.026984781492000003,-0.00022918379122500014,-0.00042239793107000015
1.7176156136474043e+18,-0.013645513291700004,-0.0029611076577,0.00267211303584
1.7176156138474043e+18,0.007732367171669999,0.00021915591343349997,-0.001704798429195
1.7176156140474043e+18,0.005315589316935,-0.00885456445385,0.0013004147447399999
1.7176156142474043e+18,0.00460789431673,-0.014955722797550003,0.009697880177455001
1.7176156144474043e+18,0.010347160201384998,0.005209738822285,-0.005260921211714999
1.7176156146474043e+18,0.005101837156965,-9.077621071999996e-05,-0.0035973038758250002
1.7176156148474043e+18,0.0106849008237,-0.001697233013985,0.005724029161244999
1.7176156150474043e+18,0.0069583521631100004,0.009416998603775002,-0.003940450003594999
1.7176156152474043e+18,-0.0039615358508473695,0.004514734404642105,-0.0036212724730999997
1.7176156154474043e+18,-0.0006831375825999998,-0.0014873402090815,0.00092553023705
1.7176156156474043e+18,0.009143447264600002,0.00072197325508,0.00019124294650000006
1.7176156158474043e+18,0.01848947769,-0.0012380980362600002,0.0064675464530870004
1.7176156160474043e+18,0.012044281513350002,-0.0013769761317775002,0.0023212904002550003
1.7176156162474043e+18,0.014523323066699997,-0.011157514183850002,0.004121067771100001
1.7176156164474043e+18,-0.015161162708625003,-0.0117790462096,-9.225246021500004e-05
1.7176156166474043e+18,-0.00983027124927,0.005282676031099999,0.0012582106278599997
1.7176156168474043e+18,-0.0006334048348499998,0.014267517694950002,-0.0003298659342950001
1.7176156170474043e+18,-0.009465073119095002,0.019886021223,0.011484335968345
1.7176156172474043e+18,-0.0160081803326,0.0155046159519,0.001262786286105001
1.7176156174474043e+18,0.017959653912000002,-0.006134057216835001,-0.005089961097245001
1.7176156176474043e+18,0.015070443996399998,-0.0111582756683,0.0027872276603999996
1.7176156178474043e+18,-0.059681840635799996,-0.0652034915945,-0.01003516425712
1.7176156180474043e+18,-0.03172232559895,-0.04302051993975001,0.014672440639200002
1.7176156182474043e+18,0.021922954542850003,0.0028353328475499992,0.00750815811315
1.7176156184474043e+18,0.004941483112700001,-0.00594596989074,0.0205834845552
1.7176156186474043e+18,0.017893405263178952,0.016324296612,-0.0009295727910631576
1.7176156188474043e+18,0.026595071261011998,0.030370436236450006,-0.003457695827350002
1.7176156190474043e+18,-0.024787863904,0.077785659581,-0.023432951281149996
1.7176156192474043e+18,-0.005409386590499997,0.0159554463348,-0.0096234600062
1.7176156194474043e+18,0.035325492266,-0.0243316339327,0.0068031872866
1.7176156196474043e+18,0.0350722120145,-0.010998345654949998,0.014029954607350001
1.7176156198474043e+18,0.016352960361949997,-0.005789659494610001,0.01249196289635
1.7176156200474043e+18,0.001702192155207,-0.0039563320379199995,-0.0006801833398550003
1.7176156202474043e+18,-0.01351142122845,0.004686713323475001,-0.004983940580975001
1.7176156204474043e+18,-0.0178076087962,0.013193612999750002,-0.009737625065850002
1.7176156206474043e+18,-0.021585733815500004,-0.0005421831215399999,-0.0035244386875299995
1.7176156208474043e+18,-0.00594699358285,-0.00621934099513,0.002243948890795
1.7176156210474043e+18,-0.034282920533299996,-0.048268379987349994,0.001615634700255
1.7176156212474043e+18,-0.1120628589706,-0.08382861628480001,0.0300255919834
1.7176156214474043e+18,0.04618138042395,0.014998272689599999,-0.004015927726874999
1.7176156216474043e+18,0.001647909545800002,0.0036809411424799992,0.003778265649894999
1.7176156218474043e+18,0.009187835319949999,0.023932909744949996,-0.0078489825357
1.7176156220474043e+18,0.021418414489468417,0.013920557696526314,0.00529846012431579
1.7176156222474043e+18,0.009487785171220004,0.04918011869450001,-0.0281098838459
1.7176156224474043e+18,-0.028128687278949998,0.060117993041920004,-0.037947363356299994
1.7176156226474043e+18,0.0173250779418,-0.034376057122100005,-0.01375286481275
1.7176156228474043e+18,0.025418916785899998,-0.013026000583,0.004655158857289999
1.7176156230474043e+18,0.0244079201025,-0.01345803032085,0.005316099058605
1.7176156232474043e+18,0.006125661090050002,-0.00700866391315,0.006727017112820001
1.7176156234474043e+18,-0.07483142800550001,0.026042249426500002,-0.0029030292760950003
1.7176156236474043e+18,0.03251181654445,0.01363129362564,-0.0007121582053850007
1.7176156238474043e+18,0.03916341047655,-0.0025670602977450004,-0.010239104763199999
1.7176156240474043e+18,0.018463702668025002,0.003689050119935,0.013894055224805
1.7176156242474043e+18,0.013526828196552302,0.01741765991395,-0.006595156644217798
1.7176156244474043e+18,-0.00010974299797500004,-0.009936362938530001,0.01010763104945
1.7176156246474043e+18,0.022553181881099997,-0.007429667265250001,0.01471348130205
1.7176156248474043e+18,-0.00086150421396,-0.0021497976678499994,0.011061034048965
1.7176156250474043e+18,-0.001129936255375,-0.009925887215499998,0.002619165112176
1.7176156252474043e+18,0.004475910321299999,-0.00895898039429,0.008021851977975
1.7176156254474043e+18,0.00522105839368421,-0.002753457586095263,-0.0003484093070052631
1.7176156256474043e+18,0.0004831562575,-0.0035631171717950007,0.0017960668190050003
1.7176156258474043e+18,0.0024208176153999996,0.0014682051506275,-0.003509993316065
1.7176156260474043e+18,0.02414505873945,0.006113906239850001,0.021270896331460003
1.7176156262474043e+18,0.026077184616200004,0.005596978993904999,0.00696886845365
1.7176156264474043e+18,0.002199200442065,-0.00518512213595,0.00235615426173
1.7176156266474043e+18,0.008709916489782001,0.007242304610655002,-0.0005387500162999996
1.7176156268474043e+18,-0.008359938946874998,0.0089848042757,-0.0002120127435400002
1.7176156270474043e+18,-0.011454395088099999,0.006766089104149999,-0.00432533778931
1.7176156272474043e+18,-0.01184356748135,0.0021234739107500004,-0.002944671036665
1.7176156274474043e+18,0.006462569967740001,-0.002784278124475,0.00128436605452
1.7176156276474043e+18,0.012453831865850001,-0.001742456622013,-0.0022436421015285
1.7176156278474043e+18,0.005688447691400001,-0.0015436614668100002,-0.0003159899496949999
1.7176156280474043e+18,0.0120951773136,-0.0017599573554249997,0.003554363839800001
1.7176156282474043e+18,0.0193747910215,0.0041774378796000005,0.0033022521528640004
1.7176156284474043e+18,0.005866315358685001,-0.003732953658060001,0.00168088772354
1.7176156286474043e+18,-0.01095185826985,0.0049362175778649995,-0.00213212016975
1.7176156288474043e+18,-0.013630091507736843,0.004796927620221053,-0.002739756858383158
1.7176156290474043e+18,-0.018496982753700004,-5.440765824000003e-05,-0.001338361646025
1.7176156292474043e+18,-0.012961897881850001,-0.0010772999300563,-0.0003601075033395
1.7176156294474043e+18,-0.00462517559669,-0.0016904500371399997,0.00025446566283000003
1.7176156296474043e+18,0.006009222283122,-0.0023626953312795,-0.0006002194597749999
1.7176156298474043e+18,0.01511570160465,-0.00547830397991,0.0036601061466199998
1.7176156300474043e+18,0.015358750708499999,-0.0026301972292720006,0.00410641231577
1.7176156302474043e+18,0.01018474616615,-0.001133861597062,0.000620079459599
1.7176156304474043e+18,-0.0014743976964049998,-0.0013403509729399998,0.0009333270019449998
1.7176156306474043e+18,-0.008849678610684999,0.00024118427979049982,0.000587505078929
1.7176156308474043e+18,-0.022100475569999996,-0.002397048139195,-0.0026025426106925
1.7176156310474043e+18,-0.033346729073499996,-0.015895552388235,0.0124274014037
1.7176156312474043e+18,0.000684312068195,0.0012737827565249995,-0.00299105485906
1.7176156314474043e+18,0.014506000652999998,-0.013939484860399998,0.0013615214148500001
1.7176156316474043e+18,0.012582394497600003,-0.014662318409199997,0.0034704872173
1.7176156318474043e+18,0.00474100822458,-0.013489706100144999,0.0100007600383
1.7176156320474043e+18,0.017180092930199998,0.005414294214656,0.004093555348985001
1.7176156322474043e+18,0.0018016097602999998,-0.015511874732674999,0.005760047841199999
1.7176156324474043e+18,0.015908970449,0.00026452285236315803,-0.001393934956918947
1.7176156326474043e+18,0.010600271006,-0.012419136217724999,0.007342759462052
1.7176156328474043e+18,-0.006785056187300001,-0.0033870261281,-0.00046898927629999976
1.7176156330474043e+18,-0.0170054352845,0.004308246444190001,0.0042641647161
1.7176156332474043e+18,-0.0127913911826,0.023013397959499998,-0.0032274882077095004
1.7176156334474043e+18,-0.027578301355,0.020005902113300004,-0.027621543244500002
1.7176156336474043e+18,-0.0099186135541,0.0025155496085000006,0.008544009550799998
1.7176156338474043e+18,0.010411751477575,-0.051100330241000004,0.0389436810275
1.7176156340474043e+18,0.01335382703414,-0.00835070526621,0.029395657218999994
1.7176156342474043e+18,0.025107073085500003,0.020635114609449993,0.0506322495635
1.7176156344474043e+18,0.0122792024625,0.017667242541099998,-9.416616490000029e-05
1.7176156346474043e+18,0.012158528776625,0.009366323506890999,-0.0041142692317135
1.7176156348474043e+18,0.0028880237139299997,-0.002742786547025,0.009067652840349999
1.7176156350474043e+18,-0.0063975663275,-0.0059800433874950005,0.00240995814085
1.7176156352474043e+18,-0.013834932098150001,-0.003600539124965,0.0057576551568000005
1.7176156354474043e+18,-0.0159941886549,-0.003784633147005,0.00453082765416
1.7176156356474043e+18,-0.020590640325500002,-0.002360707870655,0.000861869985245
1.7176156358474043e+18,-0.00920494265878421,-0.0037967528852315795,-0.0017249631131421054
1.7176156360474043e+18,-0.00690337751292,-0.0016550749445750003,-0.0006395518546599999
1.7176156362474043e+18,0.021008801833150004,0.0036700552620499995,-0.002157079300425
1.7176156364474043e+18,0.024077033810999997,0.0035054113104450004,0.0002674342250150001
1.7176156366474043e+18,0.015366974100500003,0.00407354754715,0.00020905014845499988
1.7176156368474043e+18,0.006825027195200001,-0.00902283700195,0.0030471314675679997
1.7176156370474043e+18,0.0017339608515,-0.008515635974640001,0.0080808519388
1.7176156372474043e+18,0.010817592637550002,-0.011262524803065001,0.0014810805907450003
1.7176156374474043e+18,-0.007690007978750001,-0.02299302066705,0.009991329885035
1.7176156376474043e+18,0.00233134548304,-0.01079829614575,0.0030420739788950004
1.7176156378474043e+18,-0.016393927694995,-0.0857003516949,0.00862902151375
1.7176156380474043e+18,-0.084492736686,-0.18000302651,0.032674457598500004
1.7176156382474043e+18,-0.15064164474619998,-0.12710925964949998,0.0266058428676
1.7176156384474043e+18,-0.0029144626585999997,-0.11508669554800002,0.0048836564407855
1.7176156386474043e+18,0.03600549643905,0.1989358320805,-0.13904417101199998
1.7176156388474043e+18,0.27603064626000007,0.26003352124049994,-0.400947882985
1.7176156390474043e+18,0.128847321502,-0.017572909693000006,-0.08419267216788003
1.7176156392474043e+18,0.031309632978,0.17332426144263158,0.16911111693157896
1.7176156394474043e+18,0.1333788938855,0.14655778835789995,0.06027059270275
1.7176156396474043e+18,0.089171877919,0.043949031323955,-0.08399414252350001
1.7176156398474043e+18,-0.107083269581,-0.05234259316650001,-0.0704308819955
1.7176156400474043e+18,-0.19052955284,0.06558196265499999,-0.07312405546355
1.7176156402474043e+18,-0.589050862935,0.105604438113,-0.003268523258699999
1.7176156404474043e+18,-0.56857653558,-0.17695583140385002,-0.097980507456
1.7176156406474043e+18,-0.08781710490499998,-0.32749359157455,0.15395124700485
1.7176156408474043e+18,0.16495500144584999,0.168382525625,-0.0516017127016
1.7176156410474043e+18,0.40485889240499995,0.14394125123715001,-0.09669009568010001
1.7176156412474043e+18,0.12130491633520002,-0.170356968409,0.13818894455881
1.7176156414474043e+18,0.226152985552,0.02192570002575,0.020715186347999997
1.7176156416474043e+18,0.42928289175500006,0.10003476957185001,-0.0164169721537
1.7176156418474043e+18,0.2876306206075,0.059083857292999996,-0.008474928371999998
1.7176156420474043e+18,0.1720777928745,0.11702315761529998,-0.07004815628715001
1.7176156422474043e+18,0.029146905744450002,-0.011636990497500003,0.10311925448899999
1.7176156424474043e+18,-0.245292825635,0.0386512501034,0.027247601281949994
1.7176156426474043e+18,-0.6485338916842105,-0.004692911412894738,-0.07138607200173684
1.7176156428474043e+18,-0.557453802235,-0.23689840957000002,0.0900660323217
1.7176156430474043e+18,-0.19722331542670002,-0.1937180783635,0.1629283692745
1.7176156432474043e+18,-0.003902446434450005,-0.6817919220495001,0.23905434487649999
1.7176156434474043e+18,-0.15307759317199998,0.987655174845,-0.578021376585
1.7176156436474043e+18,0.2674521177048,0.013655192004349986,-0.11195403189099999
1.7176156438474043e+18,0.6292267680199999,-0.11199525254455,0.207391407715
1.7176156440474043e+18,0.5663817003349999,0.05217978319505,0.11043385258299998
1.7176156442474043e+18,0.34684359432,0.23054853256945,-0.130031531396
1.7176156444474043e+18,-0.0375920448435,-0.1414435662375,0.097890385269
1.7176156446474043e+18,-0.487314799425,-0.0438698123675,-0.0073602916187000015
1.7176156448474043e+18,-0.5594033211599999,-0.20411274918000002,0.050752560794899995
1.7176156450474043e+18,-0.2918830408735,-0.1282928213974,0.06470706519350002
1.7176156452474043e+18,0.391676951185,0.1297129939922,-0.0344316615126
1.7176156454474043e+18,0.4512307494899999,0.1759907789445,-0.08691865950499998
1.7176156456474043e+18,0.26341734529,0.16506446195205,-0.08677240109639998
1.7176156458474043e+18,0.14098475929350002,0.003919497454699999,0.010378802522024999
1.7176156460474043e+18,-0.17559609072736843,-0.06443087423157894,0.040413083117
1.7176156462474043e+18,-0.59912872016,0.02431268148435,-0.0428700747665
1.7176156464474043e+18,-0.44056224526499993,-0.146786152996,0.03354621732045
1.7176156466474043e+18,-0.1715212475425,-0.10651299598915001,0.07727597325874999
1.7176156468474043e+18,0.581134650105,0.012097966748,0.015588611411099995
1.7176156470474043e+18,0.399260683355,0.0300327025336,-0.059485294575650015
1.7176156472474043e+18,0.22655071429100002,0.056614228617999994,-0.0225655368756
1.7176156474474043e+18,0.099061065634,0.03862840781865,-0.002072391289499998
1.7176156476474043e+18,-0.23003435931519997,0.10389033723949999,-0.02230282658657
1.7176156478474043e+18,-0.588924938445,-0.030901156906149994,0.0038116505136930002
1.7176156480474043e+18,-0.42539551108999996,-0.10964393722715,0.06461502316109999
1.7176156482474043e+18,-0.1473794642408,-0.14389189468169997,0.0843367879313
1.7176156484474043e+18,0.549648255105,0.021840017946449998,0.020926045233980006
1.7176156486474043e+18,0.398254555455,0.22355633246800002,-0.08829530561430002
1.7176156488474043e+18,0.29663595259000003,0.09279683271395002,-0.0458644343995
1.7176156490474043e+18,0.10005374234955,-0.057700853655750006,-0.011350853512910004
1.7176156492474043e+18,-0.223719098515,0.06635859423455,-0.051157465364650004
1.7176156494474043e+18,-0.6266577149578947,0.014834159836263157,-0.07231650800142105
1.7176156496474043e+18,-0.5325432986,-0.1292304315655,-0.006909040268249999
1.7176156498474043e+18,-0.28901941477000004,-0.24730055146000005,0.08543417987018
1.7176156500474043e+18,-0.204965911894,-0.21705714893449998,0.038689375669200006
1.7176156502474043e+18,-0.18256223165149998,0.21521542844549998,-0.1313295699605
1.7176156504474043e+18,-0.26984236122965,0.04783572591949999,-0.037640418371950014
1.7176156506474043e+18,0.0895281186123,0.0203308015095,-0.004117054864999998
1.7176156508474043e+18,0.25963465273549996,-0.008160360647049999,0.064092360785275
1.7176156510474043e+18,0.34722139909500005,-0.0962477545215,0.027503504235500003
1.7176156512474043e+18,0.329272464655,0.2974614546027,-0.0512605147435
1.7176156514474043e+18,0.46014720797499997,0.12943057570421,-0.0326674128827
1.7176156516474043e+18,0.24228586927500007,-0.0501188694036,0.024271888122995
1.7176156518474043e+18,0.175750307735,-0.080553048103,-0.02742372276155
1.7176156520474043e+18,0.10823179261309998,-0.12442411734499999,0.003475814941524999
1.7176156522474043e+18,-0.039763902827550004,-0.12014550920699998,-0.05658592085226
1.7176156524474043e+18,-0.044633099142749995,-0.126560295746,0.0255197491724
1.7176156526474043e+18,-0.055672496837499995,-0.03468744033460001,0.03846263701865
1.7176156528474043e+18,-0.07372096828052632,0.02775786547436842,-0.0021158233531052635
1.7176156530474043e+18,-0.020878312882649998,0.027718273129849997,0.07399858573415
1.7176156532474043e+18,0.009286900912700001,0.006137079234300001,-0.03700132714074
1.7176156534474043e+18,0.03493670715367,0.12093829109872498,-0.03855802048775
1.7176156536474043e+18,0.20331288726350003,0.10913356835700003,-0.07407471267650001
1.7176156538474043e+18,0.073545767182,0.0011321084543499994,-0.11432358284699999
1.7176156540474043e+18,0.06711473483650002,-0.02102500482025,0.0077760650990999994
1.7176156542474043e+18,0.023547630047099997,-0.045968960039500004,0.06344720208899998
1.7176156544474043e+18,0.02177567402995,-0.06413856614499999,0.066627991665
1.7176156546474043e+18,0.01750049956575,-0.024388193232759998,0.0358887805595
1.7176156548474043e+18,0.014789986999565,-0.0020517493859449998,-0.0024570182201500007
1.7176156550474043e+18,0.003044928205785,0.007792130142104998,-0.0033121960821235
1.7176156552474043e+18,-0.031721599306499995,0.016036924516424998,-0.01679071446335
1.7176156554474043e+18,-0.0411468679075,0.008555047422850001,-0.0016512718058399995
1.7176156556474043e+18,-0.057304175571500006,0.00399876649005,-0.0007154265416
1.7176156558474043e+18,-0.01134057468445,-0.01109716457425,0.0022540313654999997
1.7176156560474043e+18,0.0046418285787699996,-0.01275268587913,0.0077376152161
1.7176156562474043e+18,0.006033254651631579,0.0018332177210052631,-0.009665822830420527
1.7176156564474043e+18,0.017000492022679996,0.007136260569915,-0.0038541560763999997
1.7176156566474043e+18,0.0326312854895,0.00848378799617,-0.01799770435301
1.7176156568474043e+18,0.029459682107499996,0.0031811407621699997,5.8722472704999734e-05
1.7176156570474043e+18,0.014588939095400202,0.014316703099900002,-0.0069640280442050005
1.7176156572474043e+18,0.012645417730650001,0.004795106215195,-0.006506742478549999
1.7176156574474043e+18,0.006755256897584999,0.005233269049425,-0.006013208709449999
1.7176156576474043e+18,-0.0011596881842999998,0.0024705069707349992,-0.0008881122805019998
1.7176156578474043e+18,-0.01207697228505,-0.004096750688313,0.0014893214916949999
1.7176156580474043e+18,-0.01896642841195,-0.00978325757825,0.006743941968929998
1.7176156582474043e+18,-0.0209727959245,-0.009410886304299999,0.003944659163
1.7176156584474043e+18,-0.034790288749500006,-0.011450509052000001,0.008278633794099998
1.7176156586474043e+18,-0.036880611814499996,-0.00500496547598,0.00721983740874
1.7176156588474043e+18,-0.0270660440905,-0.00888634240265,0.01653421279015
1.7176156590474043e+18,-0.01566917975495,-0.0155404476678,-0.0032643168818699995
1.7176156592474043e+18,0.0042012560639,-0.006980976864199999,-0.0323549787753
1.7176156594474043e+18,0.005754255177499999,-0.01103795364045,-0.014533825590769397
1.7176156596474043e+18,0.00015355181029000006,0.0205274524164,-0.00447584753815
1.7176156598474043e+18,0.004525966703302106,0.007396423839789475,-0.0001898640768789483
1.7176156600474043e+18,0.01389146016465,0.011353799621305,-0.018574050068515
1.7176156602474043e+18,0.009489316143849999,0.010859459594755,-0.004441431747475499
1.7176156604474043e+18,0.001522249617835,0.0078062374613000005,-0.0013643034731500002
1.7176156606474043e+18,0.007107806060404999,0.00642466932205,-0.00519298682909
1.7176156608474043e+18,0.010664562392299999,0.0032487017336,-0.007970777293650002
1.7176156610474043e+18,0.0077416862476500006,0.00333200144815,-0.007044766063020002
1.7176156612474043e+18,0.0049403796319,0.006629001983500001,0.00014190936873000027
1.7176156614474043e+18,0.010557737067549998,0.007281730050515,-0.0019633890826249996
1.7176156616474043e+18,0.0059603088367,0.007060806569649999,-0.00493239864005
1.7176156618474043e+18,0.002318324857407,0.0056499231869105,-0.0032505942275665007
1.7176156620474043e+18,0.0049102503224000005,0.0042951063543500015,-0.0026199316606979996
1.7176156622474043e+18,0.0012994540796,0.0006228312340885,0.0009822410065184997
1.7176156624474043e+18,-0.00102928625425,0.015537711396199999,-0.0050172637919
1.7176156626474043e+18,0.0055282956863499984,0.010007370124752002,-0.010628620488815
1.7176156628474043e+18,0.0014259870486449998,0.0235616058115,-0.027607239177949994
1.7176156630474043e+18,0.01472754070129,0.053593366593,-0.0375198959375
1.7176156632474043e+18,0.013074715849036843,0.040063107777894735,-0.016268126077842105
1.7176156634474043e+18,0.020583229994899997,-0.028691297164349993,0.0292838408619
1.7176156636474043e+18,-0.00179866860272,-0.010844897480649998,0.0074683596842
1.7176156638474043e+18,0.019617267083454997,-0.075463748164,0.01478066183648
1.7176156640474043e+18,-0.019891835691799996,-0.05513806044849999,0.050297867691999995
1.7176156642474043e+18,-0.00812035321178,-0.09386625108499999,0.0472837952895
1.7176156644474043e+18,-0.062750403957,0.0256306897375,-0.0018382712731349997
1.7176156646474043e+18,-0.00386079180474,0.028736647148099998,-0.014580403198774999
1.7176156648474043e+18,0.021441924804749997,0.028988175498536994,-0.0239605760671765
1.7176156650474043e+18,0.014685060468020001,0.079240500091,-0.047570827045
1.7176156652474043e+18,0.026265270492648252,-0.0243988919191,-0.012564879586234997
1.7176156654474043e+18,0.0506964528,0.010831586946200001,-0.0007018812694499999
1.7176156656474043e+18,0.00428728997783,-0.032003598193899994,0.008249956299199999
1.7176156658474043e+18,0.0013598328804299991,-0.0423146562655,0.012144254403490002
1.7176156660474043e+18,-0.029397476429400004,-0.0029744049644050002,0.023534743163000003
1.7176156662474043e+18,-0.02377259251525,-0.013712659723955,0.0284991412423
1.7176156664474043e+18,-0.031000179707380005,0.0749524349345,-0.009463035001049998
1.7176156666474043e+18,-0.06294701669894737,3.97682895315796e-05,-0.026752549664736842
1.7176156668474043e+18,-0.0279733962432,-0.032161104494,-0.005147961667835
1.7176156670474043e+18,-0.043914338295,-0.03541184663745,0.04334067832750001
1.7176156672474043e+18,-0.035636818083599996,-0.06399912070699999,0.0153667941692
1.7176156674474043e+18,-0.026465260307049997,-0.0284580869135,0.04485527006885
1.7176156676474043e+18,0.05441458793449999,0.04252217260615,-0.0018945993860000003
1.7176156678474043e+18,-0.0007307710242249997,0.07221660837399999,-0.0857732228885
1.7176156680474043e+18,0.00768197624168,0.050481675379500004,-0.030036941822649998
1.7176156682474043e+18,-0.00973361708505375,0.027306969794749995,-0.019152532633999998
1.7176156684474043e+18,0.056199840736600004,0.016003349632499997,0.012189622782150002
1.7176156686474043e+18,0.062103141379000006,-0.004444168967344999,-0.007170380396039999
1.7176156688474043e+18,0.031889762799699996,-0.0017254539650350003,-0.0113945845284
1.7176156690474043e+18,-0.03741797180208,-0.004026520875470001,-0.0012440231626500002
1.7176156692474043e+18,-0.05807809359119999,0.01530160647825,0.0009739047144349995
1.7176156694474043e+18,-0.002377523949850001,0.022462232909709997,0.0105920832837
1.7176156696474043e+18,0.058898350038000015,-0.003714891587379,-0.0014114124468
1.7176156698474043e+18,0.044890257483000004,-0.0328224847561,0.02057078726405
1.7176156700474043e+18,-0.0031770264586315792,-0.01821763544476842,-0.006990961435642104
1.7176156702474043e+18,-0.0314481341275,0.011379678873149997,0.011094507924620002
1.7176156704474043e+18,-0.014580626972050004,0.0151959557089,-0.021916640340749995
1.7176156706474043e+18,-0.018898135470889997,-0.03650753325804999,-0.047101548127300004
1.7176156708474043e+18,-0.05351568157725001,0.03677675293005,-0.03398887349783
1.7176156710474043e+18,0.02115722760735,0.078892041367,-0.08298937790150002
1.7176156712474043e+18,0.055493648164,0.025059087458200003,0.003103041323650001
1.7176156714474043e+18,0.02171371642055,0.0056221814828,-0.0236177061696
1.7176156716474043e+18,0.0061086654652499975,-0.06651763217600001,0.028196312092200006
1.7176156718474043e+18,-0.00592889026095,-0.027901730274329996,0.03443821107429999
1.7176156720474043e+18,-0.045569087797999994,-0.0201929127233535,-0.0078156702689
1.7176156722474043e+18,-0.04594364575389499,0.011678847609285002,0.045805422962499995
1.7176156724474043e+18,-0.0205711914075,-0.00412036405115,0.0035215078390850004
1.7176156726474043e+18,-0.011666432418600001,-0.021678827493300003,0.0493267508225
1.7176156728474043e+18,-0.0025760480494049997,-0.02892249007899999,0.005018394906025
1.7176156730474043e+18,0.00030492362580000017,-0.021592905745049996,0.01387095458325
1.7176156732474043e+18,0.00528538317605,-0.0017148536346600005,-0.0055651356112985
1.7176156734474043e+18,-0.006967668660894736,0.04716641911736842,-0.028710635206678947
1.7176156736474043e+18,0.014550985698950001,-0.01953693563145,0.005751934250600001
1.7176156738474043e+18,0.0014609890993000005,-0.024485085645670004,0.023673888342499998
1.7176156740474043e+18,0.0011844883705000007,0.02990269693535,-0.037322914042
1.7176156742474043e+18,-0.013847596897,0.026347243878499998,-0.037763950134999995
1.7176156744474043e+18,-0.005953699720074501,0.003902302020235,-0.01281299104471
1.7176156746474043e+18,0.009809968364529999,-0.0030283299829014995,-0.00184487358144
1.7176156748474043e+18,0.011225500329685001,0.019888394791,0.004346027201800001
1.7176156750474043e+18,0.018530449270750003,-0.003335102047705,0.0106322175008
1.7176156752474043e+18,-0.009540336509,-0.0081994859217,-0.001924496562840001
1.7176156754474043e+18,-0.055341781489499996,-0.021680986367950003,-0.017472797817124998
1.7176156756474043e+18,-0.10420819596000001,-0.031993169571049994,-0.023847388452294997
1.7176156758474043e+18,-0.10224158316250001,-0.0118692668204,-0.0413962483844
1.7176156760474043e+18,-0.10126226134550001,-0.010251573007250001,-0.019875427741300005
1.7176156762474043e+18,-0.015506886964299998,0.018862499319,0.032883892766999996
1.7176156764474043e+18,-0.011232492897099999,-0.0433466483835,0.037402601726000004
1.7176156766474043e+18,-0.005326916172799999,-0.008511874161333,0.029100819700799994
1.7176156768474043e+18,0.0268130619438421,-0.003028346066126316,0.005345127753353684
1.7176156770474043e+18,0.01680752576735,0.003105612018865,0.00309107219783
1.7176156772474043e+18,0.025444720033499995,0.005589537799265001,0.005621342734279
1.7176156774474043e+18,0.0346380700355,-0.0037576327202350004,0.0096353823781
1.7176156776474043e+18,-0.00025626260344999917,0.02570304663505,-0.00783511502605
1.7176156778474043e+18,0.0126560025667,0.00689824067851,0.0039627222809499995
1.7176156780474043e+18,0.044345260273399995,0.01762809853132,0.004477711627300001
1.7176156782474043e+18,0.062946124286,0.006336629105275,0.008656672435055
1.7176156784474043e+18,0.028315669694099998,0.00366423211983,-0.00780517372765
1.7176156786474043e+18,0.0347254575807,0.010220904837385,0.0117224649304
1.7176156788474043e+18,0.01050908513085,0.0019690243295499995,0.00037825107581500057
1.7176156790474043e+18,0.01572636549725,0.005598533549085,-0.004684355389419999
1.7176156792474043e+18,0.0012728241451000002,-0.002729878632634,-0.0006060423555999999
1.7176156794474043e+18,-0.10186802148799998,0.040138549659799995,-0.01912796918733
1.7176156796474043e+18,-0.04485167500040001,0.04646657919449999,-0.032011260044999996
1.7176156798474043e+18,0.0261581457231,0.010699921125749998,-0.01136453596395
1.7176156800474043e+18,0.059973750821500006,-0.023819321324099998,-0.006223667983580501
1.7176156802474043e+18,0.058797869242631584,-0.019905443696052634,-0.0038475925345263155
1.7176156804474043e+18,0.041362081422499995,-0.00895291471455,-0.0385956565863
1.7176156806474043e+18,0.013649658876565501,-0.0488688233077,0.004707767908249999
1.7176156808474043e+18,-0.0056629056925,0.022802458256150005,0.048141015786
1.7176156810474043e+18,0.0009635036167699998,-0.012987889477450002,0.03243832376299
1.7176156812474043e+18,-0.0244558256595,-0.040077121439949986,-0.037171574659750004
1.7176156814474043e+18,-0.079550350086,0.019761363848999996,-0.0977990701805
1.7176156816474043e+18,-0.0646387545405,-0.009639594064100001,-0.00914037018065
1.7176156818474043e+18,0.01913944358275,-0.0229340292057,0.01801684075015
1.7176156820474043e+18,0.053221676312,0.0078108092185,-0.034168654774
1.7176156822474043e+18,0.08362680487499999,0.00627265786735,-0.009863836294919999
1.7176156824474043e+18,0.0249096753762,0.017559482186594998,-0.0166163866876
1.7176156826474043e+18,0.019072728377145,0.0066951303282500015,0.010772563750200002
1.7176156828474043e+18,-0.00167054437018,0.012210208316900001,-0.000379053153945
1.7176156830474043e+18,-0.031994048126695,0.003192062259715,0.0060307244533701
1.7176156832474043e+18,-0.038541820180499994,0.00014575671522,0.00135112570142
1.7176156834474043e+18,-0.034726462513,0.00905319244495,0.003399548539885001
1.7176156836474043e+18,-0.026027976486368426,-0.010083157814578947,0.0063890588686315785
1.7176156838474043e+18,-0.01822751596845,-0.004920331529115,0.002439716295205
1.7176156840474043e+18,0.0220346650109,0.0021427267812700003,0.0037391646998200002
1.7176156842474043e+18,0.037724933866500006,0.0006021027555900004,-0.0007186695467499998
1.7176156844474043e+18,0.020543495926300004,-0.0064098330422,-0.0014810619878049994
1.7176156846474043e+18,0.009360761931335001,0.0015540074964999998,-0.00239679339574
1.7176156848474043e+18,-0.029344899067199996,-0.0017023311273755,0.0025577214314
1.7176156850474043e+18,-0.026355666574000004,0.0011083542178550003,0.0029551285318240006
1.7176156852474043e+18,0.009902142556115,0.0040672852774,2.2250669499999844e-05
1.7176156854474043e+18,0.0101324092022045,0.0016052477991889999,-0.0009294903251499999
1.7176156856474043e+18,0.0034674146096799995,0.0020838820069600003,0.0017205551266500003
1.7176156858474043e+18,0.01399277623901,-0.0017401893317795,0.0009378736141124999
1.7176156860474043e+18,0.011151222898765,-0.004879824101225,0.005836532451325002
1.7176156862474043e+18,0.008403517410800001,0.00045639926245000007,0.0050260389687165
1.7176156864474043e+18,0.01091381711905,0.0022914271830574997,0.0034564774365150007
1.7176156866474043e+18,0.0102556423313,0.004335838605640001,0.008060879842309998
1.7176156868474043e+18,0.004022314916899999,0.0011623667334849997,-0.0021744554627845
1.7176156870474043e+18,-0.019275452010473683,-0.0016693255671684209,0.0004487742278000001
1.7176156872474043e+18,-0.02643255787,-0.0008299429304235,0.00030968799246499973
1.7176156874474043e+18,-0.029018670297749995,-0.003235265371135,8.770902654999992e-05
1.7176156876474043e+18,-0.028600513935500005,-0.007740957016249999,0.002676225290655
1.7176156878474043e+18,-0.028451821672999998,-0.003565033459775,0.003725441894525
1.7176156880474043e+18,-0.0007524241938999995,0.002188875038645,0.001289548515325
1.7176156882474043e+18,0.010943058468204998,0.003991875873275001,-0.000926398800274
1.7176156884474043e+18,0.01354478492275,0.0027507313133700003,-0.005377587117335001
1.7176156886474043e+18,0.031284760963,0.0023733850248550004,-0.00249742000603
1.7176156888474043e+18,0.02825599219655,0.000701670543594,-0.0015785162686499997
1.7176156890474043e+18,0.021063339152000003,-0.001674166944535,-0.00134496674877
1.7176156892474043e+18,0.015723848855300003,-0.0005767665919674999,-0.0003869230161415
1.7176156894474043e+18,0.026799943064999998,0.00333625219512,-0.0009334821953349999
1.7176156896474043e+18,0.0124184374002,0.0006868450865665002,-0.0018513376711899998
1.7176156898474043e+18,0.00467752651319,0.0016568453226644998,0.001240708236525
1.7176156900474043e+18,-0.005955106185084999,-0.0005756759215678,0.0015132282279050001
1.7176156902474043e+18,-0.0071229238176499995,-0.00836878095835,0.003167109354295001
1.7176156904474043e+18,-0.03008528534,-0.002754924193947368,0.0014998217996210525
1.7176156906474043e+18,-0.03409891706,0.0031852479501029997,0.0011167526827639998
1.7176156908474043e+18,-0.029764138534,-0.0036520492636800002,0.00130660093855
1.7176156910474043e+18,-0.030758940243000004,-0.0014017065491450003,0.007345714677076999
1.7176156912474043e+18,-0.03479249971,-0.0007729508652899999,0.002339171222585
1.7176156914474043e+18,-0.028454933477899996,0.0016466824498349998,0.0027528332778899997
1.7176156916474043e+18,0.02003887340005,0.00369372620595,-0.0178423010506
1.7176156918474043e+18,0.020198932898510002,-0.0035897987837000002,-0.029731984529400002
1.7176156920474043e+18,0.010784826747985001,0.005607921438200001,0.0037326509593500006
1.7176156922474043e+18,-0.0007997433160400001,-0.0006884179092850001,0.009070379892615
1.7176156924474043e+18,0.00742493083549,0.004358961357545,-0.00151710007275
1.7176156926474043e+18,0.007536524193149001,0.0002660565412745,0.0006946741831999998
1.7176156928474043e+18,0.004893592349425,0.0015860156797359998,-0.0024126753676009995
1.7176156930474043e+18,0.02375939269575,0.0026768730051149998,-0.00078301856993
1.7176156932474043e+18,0.011388193571,-9.063484618499996e-05,0.00299536628906
1.7176156934474043e+18,0.00021679770174499996,-0.001899250745184,0.00188587489536
1.7176156936474043e+18,0.0013842034268749998,-0.0006563593298635,0.00443953287316
1.7176156938474043e+18,0.009156637790526313,0.0013367653307615791,0.001382505276205263
1.7176156940474043e+18,0.00067562553457,-0.00080569944696,-0.0041195737663506
1.7176156942474043e+18,-0.004223504994345,0.0011271842252850001,0.003294301661609931
1.7176156944474043e+18,0.012549514631882,0.0017844419561549997,0.0007456370862600002
1.7176156946474043e+18,0.0061322368092500005,0.0008898261993000001,0.0008922610550799999
1.7176156948474043e+18,0.018306363798074998,0.002664337468705,-0.00023140329863499987
1.7176156950474043e+18,0.0217359805018,0.014511522301449998,0.017816737643400006
1.7176156952474043e+18,0.027265279692500005,0.0031641782334349993,0.0006741163784250001
1.7176156954474043e+18,-0.009648519517365001,-0.00452577336695,-0.0026822841958849997
1.7176156956474043e+18,-0.0277913362715,-0.0064765683138,0.0028733452084249997
1.7176156958474043e+18,-0.0368351443665,-0.0085367203099,-0.000732678326325
1.7176156960474043e+18,-0.038686307798999994,-0.0004802087424549999,0.002894803043549999
1.7176156962474043e+18,-0.032828034368,-0.004223510000175,0.004380470281479999
1.7176156964474043e+18,-0.019014437863245,-0.0034785135838149997,0.003743874747300001
1.7176156966474043e+18,0.02818681478965,0.004741771656424999,-0.000238177110416
1.7176156968474043e+18,0.03931902349,0.006736686034100001,-0.005393517016925
1.7176156970474043e+18,0.029250920422999992,0.001511678092345,0.0025470063439500005
1.7176156972474043e+18,0.010638630126194737,0.001964727232747368,0.002257518568278948
1.7176156974474043e+18,0.027500124508499996,0.0056530254038149996,0.0042191160148
1.7176156976474043e+18,0.020936388079750002,0.003705115438731,0.002149075968095
1.7176156978474043e+18,0.003981879047887001,0.0004987052744,0.0007450666977000002
1.7176156980474043e+18,-0.029258085903949998,-0.0028160706329730003,-0.0062690552444899985
1.7176156982474043e+18,-0.02922961045965001,0.005109862930885,-0.00223170432781
1.7176156984474043e+18,-0.030258240551499997,-0.0021580834436449995,0.001116625790085
1.7176156986474043e+18,-0.027671910168999996,-0.0043561208730800004,0.00191080411889575
1.7176156988474043e+18,-0.0084454222996,-0.005632511581570001,0.00518149917455
1.7176156990474043e+18,0.0011201535586,-0.002833417344599,0.0025094592479000003
1.7176156992474043e+18,0.0216946777414,0.0011369291706405,-0.0003987591947399999
1.7176156994474043e+18,0.035205949563,0.00376088412887205,-0.00089382082221
1.7176156996474043e+18,0.04133090162650001,0.006277417472775,0.0014054693515695
1.7176156998474043e+18,-0.011959913931849999,-0.0048091225471,-0.00013317413385499987
1.7176157000474043e+18,-0.0329875154415,-0.00616938448809,3.2457220326999976e-05
1.7176157002474043e+18,-0.0648371858495,-0.0068495395943,0.0023397925309399997
1.7176157004474043e+18,-0.012224537769339999,0.00275790365155,-0.006714337948005
1.7176157006474043e+18,0.05079427229189473,0.008462348278263159,0.007477203947563684
1.7176157008474043e+18,0.051435358960199996,0.0049477081849649985,0.0081288584048
1.7176157010474043e+18,0.038594883213549994,0.0027004214604250004,-0.0033635300001699994
1.7176157012474043e+18,-0.03157347366174999,0.0018490647547,-0.005130954925310001
1.7176157014474043e+18,-0.05777919273700001,0.013476709707200002,-0.009420656505925
1.7176157016474043e+18,-0.05019386149999999,0.00092687978744,0.0035384369784499997
1.7176157018474043e+18,-0.029662400075850005,0.0024211939421999997,0.0008531896630544998
1.7176157020474043e+18,0.024365170951900002,0.0030233421073499996,-0.0015977174391
1.7176157022474043e+18,0.06474720630799999,0.0031206190934450003,0.0003648256418500003
1.7176157024474043e+18,0.048075319268,-0.005317394138500001,0.006595071952440001
1.7176157026474043e+18,0.026294919248050004,-0.008661000803500001,0.010345501825674999
1.7176157028474043e+18,-0.0007688195475355002,-0.0057402779289500005,0.001866673537905
1.7176157030474043e+18,-0.02756706414475,-0.00297807789725,-0.0222324614876
1.7176157032474043e+18,-0.045845564081999995,-0.005634602310399999,-4.845065964999996e-05
1.7176157034474043e+18,-0.0516718698665,-0.00533699685116,0.002074811048465
1.7176157036474043e+18,-0.03628061767599999,-0.008494522719234999,0.0034464411206865005
1.7176157038474043e+18,-0.0381825882935,0.0176897444062,-0.005284881300685
1.7176157040474043e+18,0.01085433898263158,0.008306041150578947,-0.0012188771932473681
1.7176157042474043e+18,0.07634253613799999,0.0073851221009050005,-0.026442151796000003
1.7176157044474043e+18,0.05332119110950001,-0.008357527659750001,0.00939478052315
1.7176157046474043e+18,0.05683589018849999,-0.0019112616050250004,0.00046573961014999987
1.7176157048474043e+18,0.0263041334235,-0.0032278042548650005,0.004233026971
1.7176157050474043e+18,-0.018719341069685,-0.0043131097365935,0.0027679942546299996
1.7176157052474043e+18,-0.062136394531499994,0.00206973917674,0.0006171648856524998
1.7176157054474043e+18,-0.0454133398825,0.0009090035818325999,0.00549455203549
1.7176157056474043e+18,0.016188800660350004,0.0030897519202449995,-0.0025123266852599994
1.7176157058474043e+18,0.013547487830849997,0.0018921769558170002,-0.0009404662298399998
1.7176157060474043e+18,0.0074018581065750004,0.00246842349738,0.0003209130604299999
1.7176157062474043e+18,0.011394967780000001,0.00254593837115,-0.000944088411135
1.7176157064474043e+18,0.001603047268803,-0.00065581124801,0.0005729953290549998
1.7176157066474043e+18,0.0042536250085,-0.0019789751219399998,-1.5135319065000025e-05
1.7176157068474043e+18,0.0158554475281,-0.00013651710910500005,0.004612419753932001
1.7176157070474043e+18,0.01352536163286,0.000832216631495,-0.00355970438098
1.7176157072474043e+18,-0.006552099518499999,-0.001462203751775,0.0028584433369600003
1.7176157074474043e+18,-0.00034386852425263143,0.0005400850718378946,0.0011588177693052633
1.7176157076474043e+18,0.018972378905314998,0.00228221641747,-0.0004218459130450001
1.7176157078474043e+18,-0.014240807493399999,-0.001267444517045,-0.0004305288429750002
1.7176157080474043e+18,0.0008493249595499998,0.0009545440144700001,-0.0010007651639
1.7176157082474043e+18,0.005070942727265,0.002750055179075,0.0009760625893249998
1.7176157084474043e+18,0.013648019894999999,0.0043419497309099995,0.0004660349339
1.7176157086474043e+18,-0.020936360117399997,-0.004041142668695001,-9.021075668100002e-05
1.7176157088474043e+18,-0.048806723952999995,-0.0030130900224200003,0.002166611724506
1.7176157090474043e+18,-0.036060935165999994,-5.4956617549999975e-05,0.0010837316045650002
1.7176157092474043e+18,-0.017050629516,0.015877809314585,0.007852269010740001
1.7176157094474043e+18,-0.07488847765929998,0.0447913725609,-0.0045301585935
1.7176157096474043e+18,-0.0999604333205,0.03659010385355,-0.012955916392799999
1.7176157098474043e+18,-0.02185154836685,-0.06082810089099999,-0.019534195400737496
1.7176157100474043e+18,0.08362348247450001,-0.03033468555345,0.028298303857699998
1.7176157102474043e+18,0.17108163722,0.123071230572,0.05442513197235001
1.7176157104474043e+18,0.0801420828865,-0.06554052909255001,0.19978251122000001
1.7176157106474043e+18,-0.0013811672872000014,-0.005318462068,0.12476420691350001
1.7176157108474043e+18,0.011185660948926316,0.1923560676668421,-0.20131019737442105
1.7176157110474043e+18,-0.0311702844183,0.04024609909455,0.016110428833994998
1.7176157112474043e+18,-0.012447484350450002,0.08611660670867498,-0.1508559442598
1.7176157114474043e+18,-0.06096423263122001,0.042659951467199995,-0.12373092080849998
1.7176157116474043e+18,0.02268439999315,0.032449431228049996,0.0003851663325000039
1.7176157118474043e+18,-0.013666790526474501,-0.028998612983724997,0.04559508357070001
1.7176157120474043e+18,0.009070240939825,-0.0803269136982,0.0778139437098
1.7176157122474043e+18,-0.04929481505074999,-0.10063621905280999,-0.004336302726849999
1.7176157124474043e+18,-0.6113271050149999,0.0364719802974,0.03826933619605
1.7176157126474043e+18,-0.651407311865,-0.11366176455999996,0.023878487949654997
1.7176157128474043e+18,-0.32880830763999996,0.035688901684,0.005539370301350004
1.7176157130474043e+18,0.08805990931789999,-0.09348923359199998,0.059940646314
1.7176157132474043e+18,0.5131967719599999,-0.2624945940475,0.17833549846000002
1.7176157134474043e+18,-0.0940295481187,0.9826525742030002,-0.5336311773559499
1.7176157136474043e+18,0.27768446414465,-0.6010216958899999,0.31907400920145
1.7176157138474043e+18,0.32003174088249997,-0.4837317079400001,0.236169846355
1.7176157140474043e+18,0.5539985880149999,-0.07143615912299998,0.17766534593
1.7176157142474043e+18,0.3599349401578948,0.20887538344578946,-0.07910731728752632
1.7176157144474043e+18,0.2150132127095,0.029036307813149996,-0.03897631569665
1.7176157146474043e+18,0.043548660773550005,0.11270236428750002,-0.05421523088549999
1.7176157148474043e+18,-0.24659375213100004,0.037626164385100004,-0.030511037141249996
1.7176157150474043e+18,-0.66348757744,-0.040134160369000006,-0.03902265601049999
1.7176157152474043e+18,-0.41701876819,-0.13727835640550004,0.01850244929085
1.7176157154474043e+18,0.16215228046900002,-0.12384537487630001,0.06053426281734999
1.7176157156474043e+18,0.52565014958,0.143294804542,-0.043421677919249994
1.7176157158474043e+18,0.341965133695,0.13288187979899999,-0.042250978804699996
1.7176157160474043e+18,0.1672808781195,0.11179716311141001,-0.03782032227724999
1.7176157162474043e+18,-0.047124929728,-0.0697714784595,0.07331427959549999
1.7176157164474043e+18,-0.604049476975,-0.00376709604185,-0.04738492420609999
1.7176157166474043e+18,-0.637727302295,0.0345590403765,-0.026013724226950002
1.7176157168474043e+18,-0.2560811482237,-0.030932433648149998,0.002508130320600001
1.7176157170474043e+18,0.61146522538,-0.06386674937555,0.01373675784575
1.7176157172474043e+18,0.4535900205350001,0.05934222978275,0.019745380245
1.7176157174474043e+18,0.31277755051999995,0.12628514617300002,-0.018205716550450002
1.7176157176474043e+18,0.029142644650736838,0.040172987432,-0.021711544525894737
1.7176157178474043e+18,-0.28990544350399994,-0.027012590143465,0.0038752457367999976
1.7176157180474043e+18,-0.7473846525,0.06711308348155,-0.05940564703325
1.7176157182474043e+18,-0.49873187394,0.013977782425649999,-0.0516876288712
1.7176157184474043e+18,-0.263913293368,-0.0946217381124,-0.007714448543
1.7176157186474043e+18,0.21760274037559996,-0.25770941116049995,0.054425753891999995
1.7176157188474043e+18,0.5477076657100001,-0.26514242941370003,0.0641348117955
1.7176157190474043e+18,0.6851982220900001,0.362679283315,-0.1436060727101
1.7176157192474043e+18,0.363011153035,0.04545168397299999,0.01533876804425
1.7176157194474043e+18,0.12791113411969998,-0.07057495517412,0.07605893006999999
1.7176157196474043e+18,-0.24843467249893,0.0380770237205,-0.039445189270400006
1.7176157198474043e+18,-0.740409642465,-0.145322511722,0.03901740853075
1.7176157200474043e+18,-0.372022844115,-0.04322241423605001,-0.005700864270150004
1.7176157202474043e+18,0.0359984243305,-0.13590917705480002,-0.021683605896650002
1.7176157204474043e+18,0.6848577737849999,0.06948455283949999,-0.056305196420500005
1.7176157206474043e+18,0.41547617167499995,0.1454107046125,-0.009356509847544499
1.7176157208474043e+18,0.1871700614905,0.050344089209270006,0.0591405589606
1.7176157210474043e+18,-0.10648752298368419,-0.05292991637052632,0.018696681988421053
1.7176157212474043e+18,-0.5671103425200001,0.13845269307699998,-0.04747479064415
1.7176157214474043e+18,-0.586991761625,-0.18355496239695002,0.013686665518749998
1.7176157216474043e+18,-0.343420065925,-0.24714267943450002,0.06981102651500001
1.7176157218474043e+18,-0.23246679064700002,-0.010654656401650003,-0.028046065522700003
1.7176157220474043e+18,-0.14305273429149998,0.125074429987,-0.1013537321723
1.7176157222474043e+18,-0.43688548132499994,0.063623165896,-0.05749836667035
1.7176157224474043e+18,-0.20135955070225,-0.11135383294904999,-0.011640634768000003
1.7176157226474043e+18,-0.089681118488,0.10170948537248,-0.044973102112499996
1.7176157228474043e+18,-0.011031681952,0.4632296696210001,-0.259273780135
1.7176157230474043e+18,0.33655977551509997,0.084384335723,-0.03857739516415
1.7176157232474043e+18,0.39919407069999996,0.16667945624225,0.011467306782
1.7176157234474043e+18,0.35128145404500005,-0.010356893782400001,0.0633399701705
1.7176157236474043e+18,0.6546898156400001,0.0032933443770000017,0.14870400266349998
1.7176157238474043e+18,-0.1650079611675,0.04995203787414999,0.25046230846170003
1.7176157240474043e+18,-0.722644716485,-0.28652524874,0.7860694453100001
1.7176157242474043e+18,-0.08864384050999999,-0.16197897997400001,0.693378528975
1.7176157244474043e+18,-0.03670426708527369,0.008100859979536842,0.16184025886526318
1.7176157246474043e+18,-0.099382488424,0.014323803572199997,-0.02404090175355
1.7176157248474043e+18,-0.05756557937600001,0.007827862423045,0.019510849983799997
1.7176157250474043e+18,-0.07093721553699998,-0.0340706448995,0.05502188348134501
1.7176157252474043e+18,-0.25254311710000005,-0.0066424868996,0.01953747090895
1.7176157254474043e+18,-0.04557261094841501,-0.00657871262681,-0.0731387635695
1.7176157256474043e+18,-0.0401341024785,-0.0280753784804,-0.029786244140100004
1.7176157258474043e+18,-0.0315338937105,-0.015816937570894998,0.0028713829578000004
1.7176157260474043e+18,-0.09934755190649999,-0.03383409269355,0.036061291120400005
1.7176157262474043e+18,-0.06073308009649999,-0.0224528838915,0.0647052189793
1.7176157264474043e+18,-0.11640596911449999,-0.0225045713233,-0.09329936253349999
1.7176157266474043e+18,-0.13307615668099998,-0.03157660445388501,0.06132721425849998
1.7176157268474043e+18,-0.7352367915050001,0.29933905191,0.6768890973190002
1.7176157270474043e+18,-0.5955996388485001,1.3109358817349999,-0.9589813085145
1.7176157272474043e+18,-0.529998037068,2.2127365767500002,-3.5392013967000002
1.7176157274474043e+18,-1.1002196430899998,2.3003932893999997,-5.50571312895
1.7176157276474043e+18,0.6659581654100001,2.4244886421225003,-3.3217016696450004
1.7176157278474043e+18,-0.2691722524929474,2.646668926636842,-0.23335402574736835
1.7176157280474043e+18,0.21160306741,0.9052312440600001,0.15110006145500002
1.7176157282474043e+18,1.4385819979374999,-0.788328536928,0.10794957587449998
1.7176157284474043e+18,0.748338596525,0.431221000485,0.108539327143
1.7176157286474043e+18,0.5647268205899999,0.18153166602715,0.21843136641450003
1.7176157288474043e+18,-0.05665785702,-0.3074364319125001,-0.11644215230249999
1.7176157290474043e+18,,,
