Timestamps,Acc_X,Acc_Y,Acc_Z
1.7175970080185132e+18,3.17352811435,-0.54262909698,9.41687999735
1.7175970082185132e+18,3.2066242905,-0.41153171539500005,9.1395442199
1.7175970084185132e+18,3.28968656165,-0.19387683104800002,8.9143225708
1.7175970086185132e+18,4.74511747745,2.015311637795,9.806946350050001
1.7175970088185132e+18,4.2223520737,2.65363673405,8.63569198645
1.7175970090185132e+18,4.417104583550001,4.255620391799999,6.47739019775
1.7175970092185132e+18,2.9140502013650003,7.8589796677,7.144807296649999
1.7175970094185132e+18,7.7588004914,5.5270389633868495,1.810297965985
1.7175970096185132e+18,-0.93633288572,9.012099242635,7.8905789568500015
1.7175970098185132e+18,4.218048522899999,8.3145572892,5.47276183325
1.7175970100185132e+18,-1.8396893462860002,8.7934638976,2.2340891875
1.7175970102185132e+18,-1.440514434734,9.709663650100001,0.7505841521999999
1.7175970104185132e+18,-1.7564624176449999,10.14070729075,0.32429312889299994
1.7175970106185132e+18,-1.6442707214499996,9.635410560499999,0.34097593686199995
1.7175970108185132e+18,-1.8127827987499998,9.6753924178,0.604031410225
1.7175970110185132e+18,-1.92927056127,9.33666181165,1.0114167480115
1.7175970112185132e+18,-1.7462461624675,9.696767966999998,0.5281616821669999
1.7175970114185132e+18,-1.38753959666,9.95584172025,0.895250816355
1.7175970116185132e+18,-1.7792674942150004,9.58455381805,0.7063211975745001
1.7175970118185132e+18,-1.6863706740899995,9.604821670899998,0.6453978881718501
1.7175970120185132e+18,-1.38979989627,9.5100387728,0.7156991958795
1.7175970122185132e+18,-0.7669077072149999,9.8390470966,1.81138320924
1.7175970124185132e+18,-0.09017996979570002,9.962749855800002,2.3203547973500003
1.7175970126185132e+18,-1.161756614575,8.3800011981,4.120406570399998
1.7175970128185132e+18,-1.2652439117000003,8.178392944199999,5.02125574485
1.7175970130185132e+18,-1.5751893768,8.213906593499999,5.440810775699999
1.7175970132185132e+18,-2.05688019565,8.1659163894,6.1143276901500005
1.7175970134185132e+18,-1.5566354598274001,6.2842094193,7.262253067050001
1.7175970136185132e+18,-2.1006491775600002,1.9316057052500004,8.965186798150002
1.7175970138185132e+18,-2.18303784945,0.3526067504890001,9.516168525749999
1.7175970140185132e+18,-0.56402709962,-0.21421952819700008,9.905636123650002
1.7175970142185132e+18,-1.2861105194,1.0120080184,10.15923127
1.7175970144185132e+18,-0.51750384524,1.9925589522,9.648014351250001
1.7175970146185132e+18,-0.279401481585,0.323522232049,9.1368348541
1.7175970148185132e+18,-0.09022487639724999,0.347150596627,9.654712920749999
1.7175970150185132e+18,0.8184754715100002,1.50330136877,9.4895014801
1.7175970152185132e+18,1.5906821594,1.9379150847999997,9.14160992435
1.7175970154185132e+18,1.0804980927199999,1.99556021115,9.288926078700001
1.7175970156185132e+18,0.21804407501750003,1.69872747805,9.10085717015
1.7175970158185132e+18,-0.19560573577350002,1.12772488402,9.147941757249997
1.7175970160185132e+18,-0.04041595459,0.5864355011,9.637438842749997
1.7175970162185132e+18,0.3752247161850001,0.31165191649499996,10.568465262949998
1.7175970164185132e+18,0.70621641541,0.5084327087449999,11.450423721499998
1.7175970166185132e+18,1.052798194785,0.734395317065,10.466699387
1.7175970168185132e+18,0.748563354485,0.9877659301949999,10.0347501295
1.7175970170185132e+18,0.44588330719999997,1.1938148177473682,8.91389241273684
1.7175970172185132e+18,-0.014377601626499998,1.2896581421,7.6191858215499995
1.7175970174185132e+18,-0.0408425674465,1.172414451655,8.54597605125
1.7175970176185132e+18,-0.18354082488700002,0.28721523285170003,9.653949508050001
1.7175970178185132e+18,0.320910163876,-0.42412802125899995,11.065626411
1.7175970180185132e+18,-0.052870056155500014,-0.15351326751824998,11.560804184
1.7175970182185132e+18,0.88557344054,0.016181350709499998,10.4755010833
1.7175970184185132e+18,0.6462361450249999,0.820548660275,9.5958178944
1.7175970186185132e+18,0.095666061404,1.0663824462,8.168715568500001
1.7175970188185132e+18,-0.22590273285399998,1.0929971008100001,7.83327811425
1.7175970190185132e+18,0.14083463287650003,0.354485343934,9.240569137449999
1.7175970192185132e+18,0.527428207396,-0.39198985290649996,10.427451004
1.7175970194185132e+18,1.312740142755,-0.49133825684000004,11.072444732
1.7175970196185132e+18,1.0102566605150003,-0.26732160185700005,10.889038628000002
1.7175970198185132e+18,1.06558161167,-0.006915618897500003,10.3408186565
1.7175970200185132e+18,0.9145831146699999,0.543100616458,9.673349167249999
1.7175970202185132e+18,0.41178618622650004,1.1783570938200003,8.3789458924
1.7175970204185132e+18,0.23793770599729996,0.700865043745,7.3180345688
1.7175970206185132e+18,0.45875102232849996,-0.03282673645999999,9.353636512700001
1.7175970208185132e+18,0.838249351464,-0.38320312500075004,10.476010024650002
1.7175970210185132e+18,1.6343837813850002,-0.708162368815,11.446471939999999
1.7175970212185132e+18,1.9774852982,-0.47711782840500006,10.416456366999999
1.7175970214185132e+18,1.225509040895,-0.271714965817,10.47501459465
1.7175970216185132e+18,0.76984160612,-0.061813957219,9.51736603565
1.7175970218185132e+18,0.6330859908585,0.624725875835,8.0053677521
1.7175970220185132e+18,-0.06156697083049999,0.20512593841055,7.568448829600001
1.7175970222185132e+18,0.6930438079550001,-0.44112517550054997,9.6417723316
1.7175970224185132e+18,1.4324536971500001,-1.12292736056,10.5444402241
1.7175970226185132e+18,1.7543967133000002,-0.9231602783199999,10.4250185613
1.7175970228185132e+18,1.221370147635,-0.55662499236,8.454523727449999
1.7175970230185132e+18,1.13652658085,-1.173873916635,9.7826593555
1.7175970232185132e+18,1.3367651824999998,-1.46191243738,10.617997261400001
1.7175970234185132e+18,0.82810794064,-2.9112659911999996,9.42627296445
1.7175970236185132e+18,0.5996081084999999,-2.81297289275,9.44570256035
1.7175970238185132e+18,0.8957298203049999,-2.5190291519,9.331639755149999
1.7175970240185132e+18,0.43473346712379995,-2.5897645568000005,9.4050770417
1.7175970242185132e+18,0.8010142822249999,-2.4430770951499996,9.3274185334
1.7175970244185132e+18,0.5084327087499999,-2.510100219700001,9.40766665645
1.7175970246185132e+18,0.60936032867,-2.59096955105,9.36382283025
1.7175970248185132e+18,0.6193520507949999,-2.70168681335,9.345949997
1.7175970250185132e+18,0.6188730468749999,-2.8272082900999997,9.3171723404
1.7175970252185132e+18,0.6315666503900002,-2.9191545866499995,9.307524902199999
1.7175970254185132e+18,0.594803100585,-2.9310323868499997,9.285932304300001
1.7175970256185132e+18,0.6267915802000001,-2.8696450422999993,9.29191236865
1.7175970258185132e+18,0.529486427315,-2.83550104525,9.3117386399
1.7175970260185132e+18,0.5508229787736841,-2.782413940368421,9.322747457473685
1.7175970262185132e+18,0.48811246492000004,-2.7488312759999998,9.341332099850002
1.7175970264185132e+18,0.46909451295000004,-2.6899287644000003,9.346646049499999
1.7175970266185132e+18,0.457284072875,-2.648023407,9.3300979614
1.7175970268185132e+18,0.46592111206000003,-2.69331921375,9.345470993149998
1.7175970270185132e+18,0.5081408157399999,-2.7480154724999997,9.34275414275
1.7175970272185132e+18,0.518866012565,-2.79486804205,9.32634825895
1.7175970274185132e+18,0.5455405425850001,-2.83267941285,9.306282485950002
1.7175970276185132e+18,0.55894516755,-2.8692857895,9.29775771335
1.7175970278185132e+18,0.5735098800599999,-2.8904218369,9.28623916625
1.7175970280185132e+18,0.5817801818899999,-2.9320053634500005,9.277639549249999
1.7175970282185132e+18,0.6006334762500001,-2.9556711500999997,9.26808940895
1.7175970284185132e+18,0.588119499195,-2.9740454407,9.26645780175
1.7175970286185132e+18,0.602512069705,-2.9884305267499998,9.26222161115
1.7175970288185132e+18,0.5840853881799999,-2.95223579405,9.267909782450001
1.7175970290185132e+18,0.5633759536749999,-2.9253891220500003,9.28159133155
1.7175970292185132e+18,0.5478008422850001,-2.8877199554499997,9.291672866899999
1.7175970294185132e+18,0.5236186294649999,-2.8375143585,9.304920318550002
1.7175970296185132e+18,0.4871170349150001,-2.8018734741499998,9.318242614750002
1.7175970298185132e+18,0.486159027085,-2.7698475722,9.329027687100002
1.7175970300185132e+18,0.46425208282,-2.72040538785,9.309553184499999
1.7175970302185132e+18,0.48170578765500005,-2.7762617339999998,9.31872910305
1.7175970304185132e+18,0.5201832733,-2.83003740685,9.3190135116
1.7175970306185132e+18,0.5432053985699999,-2.87179307555,9.30266001895
1.7175970308185132e+18,0.5406756591799999,-2.89146217335,9.285992179900001
1.7175970310185132e+18,0.5726192321799999,-2.9061690902999997,9.27479546355
1.7175970312185132e+18,0.5727240143,-2.97168784335,9.27097840115
1.7175970314185132e+18,0.589571479805,-2.9928613127999997,9.26501330575
1.7175970316185132e+18,0.5818774795549999,-2.9749735108,9.24834546665
1.7175970318185132e+18,0.5910459136999999,-3.0005029221,9.262745521500001
1.7175970320185132e+18,0.5861660613999999,-2.9728554154000006,9.265095634449999
1.7175970322185132e+18,0.5566923523000001,-2.9460012588500004,9.276404617299999
1.7175970324185132e+18,0.5383479995799998,-2.8899353485,9.28486202985
1.7175970326185132e+18,0.520115913385,-2.8687918168000004,9.30650701915
1.7175970328185132e+18,0.49407756041499995,-2.8263176423000003,9.3123673324
1.7175970330185132e+18,0.43433679199999997,-2.7895915146,9.30347582245
1.7175970332185132e+18,0.541618698115,-2.7832372284500004,9.320652603150002
1.7175970334185132e+18,0.4631294174350001,-2.8429031525000004,9.32464180765
1.7175970336185132e+18,0.5047653350699999,-2.8706105346999995,9.309792686350002
1.7175970338185132e+18,0.55024825288,-2.8237654495999998,9.2900412597
1.7175970340185132e+18,0.67726661682,-2.79946348565,9.252439453150002
1.7175970342185132e+18,0.5227579193249999,-2.9706475066999998,9.30470326995
1.7175970344185132e+18,0.6231616287299999,-3.0060713425500003,9.26216173555
1.7175970346185132e+18,0.6143225097749999,-2.99193324285,9.270319770849998
1.7175970348185132e+18,0.558428741465,-2.93161617285,9.27356801595
1.7175970350185132e+18,0.542142608645,-2.88346131135,9.29758557125
1.7175970352185132e+18,0.5388636378315789,-2.826989665789474,9.312694678052631
1.7175970354185132e+18,0.482776062015,-2.7622284165,9.283350173950002
1.7175970356185132e+18,0.5149890747100001,-2.8180398558000004,9.32231414805
1.7175970358185132e+18,0.5624329147299999,-2.8539052734499997,9.2958342132
1.7175970360185132e+18,0.539785011295,-2.89555616,9.292533577
1.7175970362185132e+18,0.576638374335,-2.9188776627,9.281935615550001
1.7175970364185132e+18,0.57499179841,-2.95565618125,9.26195965585
1.7175970366185132e+18,0.61598405456,-2.99528627015,9.2544078598
1.7175970368185132e+18,0.604151161195,-3.03383111575,9.24086851505
1.7175970370185132e+18,0.60797570801,-3.0661938171,9.24405688485
1.7175970372185132e+18,0.628977035525,-3.0248872147,9.24817332465
1.7175970374185132e+18,0.5871091003399999,-2.9876596298,9.259931373749996
1.7175970376185132e+18,0.571092407225,-2.9346174317000004,9.2807680435
1.7175970378185132e+18,0.54050351714,-2.8751011962,9.28251191715
1.7175970380185132e+18,0.526155853275,-2.8390187302,9.30368538665
1.7175970382185132e+18,0.5065765686100001,-2.7926751022500005,9.286710685749998
1.7175970384185132e+18,0.5315745849600001,-2.8633132096000002,9.2924587326
1.7175970386185132e+18,0.56645205689,-2.92194628135,9.28681546785
1.7175970388185132e+18,0.5695730667100001,-2.9519663543499997,9.2655147629
1.7175970390185132e+18,0.6016139373749999,-2.9891415481,9.254924285949999
1.7175970392185132e+18,0.607309593195,-3.0358893356,9.24574836725
1.7175970394185132e+18,0.6204597473200001,-3.05126236725,9.23436454015
1.7175970396185132e+18,0.6237528991650001,-3.0645173034500006,9.2337957229
1.7175970398185132e+18,0.6399641876149998,-3.0612840271500006,9.241242736900002
1.7175970400185132e+18,0.596097908015,-3.0184505997000004,9.246010322599998
1.7175970402185132e+18,0.5776188354549999,-2.9836255187500003,9.257079803349999
1.7175970404185132e+18,0.5645809478750001,-2.94503576645,9.277444954
1.7175970406185132e+18,0.5504578170750001,-2.8875852356499996,9.2873693161
1.7175970408185132e+18,0.5138888626150001,-2.8583136062,9.300467079250001
1.7175970410185132e+18,0.513986160275,-2.8180174027500002,9.294284935
1.7175970412185132e+18,0.5193001098600001,-2.8131300659000003,9.295968933049998
1.7175970414185132e+18,0.5268144836499999,-2.8714637603999997,9.29870075225
1.7175970416185132e+18,0.55751564026,-2.8978239442,9.2822275085
1.7175970418185132e+18,0.593553199765,-2.9550424576,9.2732536698
1.7175970420185132e+18,0.5892646179250001,-2.9801003494,9.256630737200002
1.7175970422185132e+18,0.61348425292,-3.0207258682499996,9.24862987525
1.7175970424185132e+18,0.61480899811,-3.0559925309,9.23750051875
1.7175970426185132e+18,0.6356830902100001,-3.06819964595,9.23711132815
1.7175970428185132e+18,0.60747425079,-3.04019288635,9.239992836
1.7175970430185132e+18,0.59704094696,-2.9951740037,9.24958039855
1.7175970432185132e+18,0.5899457015949999,-2.97347662345,9.2675355606
1.7175970434185132e+18,0.545143867495,-2.9202622833,9.278485290499999
1.7175970436185132e+18,0.5298082580600002,-2.8665764237,9.29626082615
1.7175970438185132e+18,0.5255870361349999,-2.83431850435,9.29151569365
1.7175970440185132e+18,0.5181026001,-2.83374968705,9.2878782578
1.7175970442185132e+18,0.541027427685,-2.8733573225999995,9.29646290585
1.7175970444185132e+18,0.5498066711421052,-2.917897989263158,9.288720847526315
1.7175970446185132e+18,0.57935522461,-2.90460484305,9.273171340999998
1.7175970448185132e+18,0.5672454071099999,-2.9503497163,9.265776718149999
1.7175970450185132e+18,0.593096649165,-2.9766500243499996,9.254639877199999
1.7175970452185132e+18,0.6284082183849999,-3.0270427322500004,9.2485176086
1.7175970454185132e+18,0.6020106124900001,-3.0536873244500002,9.236924217200002
1.7175970456185132e+18,0.63286894226,-3.05962996665,9.2309216995
1.7175970458185132e+18,0.62191172791,-3.0729672317000003,9.238106758099999
1.7175970460185132e+18,0.61828926087,-3.0362261351999997,9.2340501937
1.7175970462185132e+18,0.5971906356650001,-3.0199849091,9.248465217550002
1.7175970464185132e+18,0.578823829645,-2.9770092772499996,9.258464424200001
1.7175970466185132e+18,0.5727988586500001,-2.9458066635,9.27200376895
1.7175970468185132e+18,0.5420827331550001,-2.91091422275,9.285655380200001
1.7175970470185132e+18,0.5326598281799998,-2.8663294372499992,9.2989851608
1.7175970472185132e+18,0.508664726245,-2.82362324525,9.30139514915
1.7175970474185132e+18,0.52087932587,-2.8175383988,9.29447204585
1.7175970476185132e+18,0.530826141355,-2.8463834152000005,9.28727201855
1.7175970478185132e+18,0.5555472335799999,-2.9254564819,9.292421310399998
1.7175970480185132e+18,0.588568565365,-2.9397891768499997,9.267363418550001
1.7175970482185132e+18,0.5914650421100001,-2.9954808655000003,9.2536968385
1.7175970484185132e+18,0.6223458252,-3.0257329559500006,9.246354606699999
1.7175970486185132e+18,0.613312110905,-3.0577663421,9.229731674249999
1.7175970488185132e+18,0.6314992904750001,-3.0728923874,9.2438173828
1.7175970490185132e+18,0.602467163095,-3.0255533295,9.24489514165
1.7175970492185132e+18,0.58552988435,-2.9987515641,9.26210186015
1.7175970494185132e+18,0.5712420959550001,-2.9313093108499997,9.2769360122
1.7175970496185132e+18,0.52608849334,-2.8855270157499997,9.285573051400002
1.7175970498185132e+18,0.515827331545,-2.8498711625,9.303999733000001
1.7175970500185132e+18,0.5146073684700001,-2.81151342785,9.3071282272
1.7175970502185132e+18,0.4825215911800001,-2.7833120728000003,9.2995315247
1.7175970504185132e+18,0.5129982147200001,-2.8111616592,9.302674987749999
1.7175970506185132e+18,0.51340237427,-2.8607460479499998,9.307494964650001
1.7175970508185132e+18,0.56954312896,-2.8970680161,9.283439987200001
1.7175970510185132e+18,0.569528160095,-2.95078381355,9.272677368199997
1.7175970512185132e+18,0.59311910248,-2.9737310943499997,9.25459497065
1.7175970514185132e+18,0.61882814026,-3.04103862755,9.249288505550002
1.7175970516185132e+18,0.617046844475,-3.0546228789,9.234342086849999
1.7175970518185132e+18,0.6199283523549999,-3.0632823714,9.230629806550002
1.7175970520185132e+18,0.618176994315,-3.0673089981,9.23848846435
1.7175970522185132e+18,0.61042311858,-3.02713254535,9.24004522705
1.7175970524185132e+18,0.5920563125499999,-3.0121786422500003,9.255036552550001
1.7175970526185132e+18,0.566549354555,-2.96466744225,9.268291488700001
1.7175970528185132e+18,0.5506149902349999,-2.9173433532499997,9.274234130850001
1.7175970530185132e+18,0.53295172119,-2.88843097695,9.291455818150002
1.7175970532185132e+18,0.5097948761050001,-2.8349022903999996,9.301080803050002
1.7175970534185132e+18,0.4965726350473684,-2.8099960568421047,9.290627409210527
1.7175970536185132e+18,0.53709061432,-2.84057549285,9.301163131749998
1.7175970538185132e+18,0.53244277953,-2.88277274325,9.290565170399999
1.7175970540185132e+18,0.563675331115,-2.92450595855,9.27963040935
1.7175970542185132e+18,0.5800213394149999,-2.9681851272499995,9.263157165549998
1.7175970544185132e+18,0.6046151962299999,-3.0094019166,9.252334671
1.7175970546185132e+18,0.60534118652,-3.03183277125,9.24131009675
1.7175970548185132e+18,0.6147416381949999,-3.04621037285,9.2324784622
1.7175970550185132e+18,0.6318136367850002,-3.0673389358500005,9.2465566864
1.7175970552185132e+18,0.59660684968,-3.0323342285,9.2468410949
1.7175970554185132e+18,0.5839282150199999,-2.9880937272,9.26128605655
1.7175970556185132e+18,0.554327270505,-2.9448935622500003,9.273365936300001
1.7175970558185132e+18,0.5459447021500001,-2.8791353072499994,9.287975555449998
1.7175970560185132e+18,0.5039495315600001,-2.8509863434000002,9.2938508378
1.7175970562185132e+18,0.508402770985,-2.8319010316,9.283672004649997
1.7175970564185132e+18,0.540540939325,-2.8797714844,9.296305732800002
1.7175970566185132e+18,0.538624923705,-2.9023146057500004,9.28299092105
1.7175970568185132e+18,0.567686988835,-2.94097171785,9.26803701785
1.7175970570185132e+18,0.583838401795,-2.9841419448499993,9.2631197433
1.7175970572185132e+18,0.609854301445,-3.0030925369499997,9.249026550349999
1.7175970574185132e+18,0.60985430145,-3.0446985168,9.240000320450003
1.7175970576185132e+18,0.610168647765,-3.0603260193,9.23997786715
1.7175970578185132e+18,0.624935440055,-3.040477295,9.24265729515
1.7175970580185132e+18,0.5827606430100001,-3.0107416306500006,9.2540710602
1.7175970582185132e+18,0.5717884597749999,-2.9691356507,9.26383824915
1.7175970584185132e+18,0.55318215179,-2.94063491815,9.2752370452
1.7175970586185132e+18,0.538160888675,-2.8803477859500006,9.286680748
1.7175970588185132e+18,0.50332832336,-2.8476632538,9.2747804947
1.7175970590185132e+18,0.533550476085,-2.8943661346000003,9.28598469545
1.7175970592185132e+18,0.562709838855,-2.9300818635,9.280857856649998
1.7175970594185132e+18,0.56549404908,-2.95430149845,9.2619596558
1.7175970596185132e+18,0.5943989410399999,-3.00274825285,9.254639877350002
1.7175970598185132e+18,0.600947822565,-3.04136794285,9.244752937350002
1.7175970600185132e+18,0.62804896545,-3.04743033585,9.233137092549999
1.7175970602185132e+18,0.6166801071149999,-3.07372315995,9.23954376985
1.7175970604185132e+18,0.615759521485,-3.02902610775,9.232530853350001
1.7175970606185132e+18,0.609442657455,-3.0176347961500003,9.251990387049998
1.7175970608185132e+18,0.563795082095,-2.9775107344999996,9.2612860565
1.7175970610185132e+18,0.5487139434749999,-2.9196485596999997,9.2728046036
1.7175970612185132e+18,0.52917208099,-2.9064759521,9.29129116055
1.7175970614185132e+18,0.52559452057,-2.8429181213,9.301829246500002
1.7175970616185132e+18,0.48514862825,-2.8053911591,9.28156139375
1.7175970618185132e+18,0.509031463625,-2.8396100005999996,9.296822158799998
1.7175970620185132e+18,0.5495072937,-2.88768253325,9.2982067797
1.7175970622185132e+18,0.546318923955,-2.9172834778,9.277983833299999
1.7175970624185132e+18,0.5817053375250001,-2.9669726487,9.2626557084
1.7175970626185132e+18,0.5932242785,-3.016905260526316,9.251692585157894
1.7175970628185132e+18,0.6273753662100001,-3.0456415558,9.241152923600001
1.7175970630185132e+18,0.61219692993,-3.05422620395,9.228683853049999
1.7175970632185132e+18,0.632876426705,-3.06734642025,9.2367296219
1.7175970634185132e+18,0.6088663558899999,-3.0389130479000004,9.243712600699999
1.7175970636185132e+18,0.5986950073250001,-3.00058525085,9.2510772858
1.7175970638185132e+18,0.5726042633049999,-2.9681626737999998,9.262401237499999
1.7175970640185132e+18,0.5417384491049999,-2.92030719,9.2823547439
1.7175970642185132e+18,0.534815345765,-2.8860958327999997,9.28730944065
1.7175970644185132e+18,0.521493049625,-2.8509114989500004,9.3023681258
1.7175970646185132e+18,0.49489336395500005,-2.8017836609999995,9.2865909348
1.7175970648185132e+18,0.516575775145,-2.8411967010000003,9.30042965705
1.7175970650185132e+18,0.5410648498549999,-2.8697722778499997,9.300272483899999
1.7175970652185132e+18,0.54227732849,-2.9057724150999995,9.2818832245
1.7175970654185132e+18,0.57032151031,-2.93970684825,9.270132659900002
1.7175970656185132e+18,0.59350829314,-2.9846284332,9.257072318999999
1.7175970658185132e+18,0.60281893157,-3.0244680862999993,9.24633215325
1.7175970660185132e+18,0.6134243774449999,-3.03941450505,9.242994094850001
1.7175970662185132e+18,0.60166632843,-3.0403725128,9.2357566452
1.7175970664185132e+18,0.6300772476200001,-3.04927899175,9.23947640995
1.7175970666185132e+18,0.5914500732450001,-3.0219608002,9.248555031
1.7175970668185132e+18,0.5855223999,-2.98867002875,9.2574689941
1.7175970670185132e+18,0.5669609985399999,-2.9600121231500003,9.270768837
1.7175970672185132e+18,0.5511763229350001,-2.9059295883000003,9.276876136800002
1.7175970674185132e+18,0.523072265625,-2.8863428193000003,9.288244995100001
1.7175970676185132e+18,0.51765353393,-2.8463684464,9.292713203549999
1.7175970678185132e+18,0.5187238082950001,-2.8290868834999996,9.285632927
1.7175970680185132e+18,0.52891761018,-2.87285586545,9.28870903015
1.7175970682185132e+18,0.5597085800099999,-2.91301734925,9.281726051399998
1.7175970684185132e+18,0.5745951232900001,-2.9525276870999995,9.273268638650002
1.7175970686185132e+18,0.59799895477,-2.9682973938,9.254063575750001
1.7175970688185132e+18,0.6041661300600001,-3.0120963135500007,9.247918853800002
1.7175970690185132e+18,0.6174659728999999,-3.0388531723499996,9.2384585267
1.7175970692185132e+18,0.6214102707,-3.0703401947,9.2371337814
1.7175970694185132e+18,0.622038963325,-3.0573771516,9.23450674435
1.7175970696185132e+18,0.597392715455,-3.01917658995,9.2456810074
1.7175970698185132e+18,0.58154067993,-2.9934001921499998,9.25960205835
1.7175970700185132e+18,0.560921058655,-2.9286223984000004,9.27232559975
1.7175970702185132e+18,0.526110946645,-2.8898455352,9.2867406235
1.7175970704185132e+18,0.517631080625,-2.8550578765999997,9.29796727745
1.7175970706185132e+18,0.51738409422,-2.8244764709500005,9.2804611816
1.7175970708185132e+18,0.5187312927250001,-2.8603194350499996,9.296657501200002
1.7175970710185132e+18,0.54144655609,-2.8895461578,9.28339508065
1.7175970712185132e+18,0.5536012802249999,-2.9284876786000003,9.276778838999999
1.7175970714185132e+18,0.59287960052,-2.9670624619,9.263875671449998
1.7175970716185132e+18,0.5887021034578946,-3.002220009263158,9.252023476
1.7175970718185132e+18,0.612399009705,-3.0272448119,9.243914680600001
1.7175970720185132e+18,0.6147416381899999,-3.0477072602499997,9.2383387755
1.7175970722185132e+18,0.6257587280350001,-3.05511685175,9.23586891185
1.7175970724185132e+18,0.6160214767550001,-3.0416748046,9.241534629850001
1.7175970726185132e+18,0.602085456855,-3.0070742568500006,9.251923027150003
1.7175970728185132e+18,0.57837476349,-2.9721069717500006,9.257977935749999
1.7175970730185132e+18,0.5648054809549999,-2.94610604105,9.27490024575
1.7175970732185132e+18,0.540256530765,-2.89369253535,9.28704000095
1.7175970734185132e+18,0.518731292725,-2.86271445465,9.291725257900001
1.7175970736185132e+18,0.525369987485,-2.824409111,9.28302834325
1.7175970738185132e+18,0.52480117035,-2.86861219025,9.289247909550001
1.7175970740185132e+18,0.5521492996249999,-2.9046497498499995,9.28534851835
1.7175970742185132e+18,0.5667140121450001,-2.94252848045,9.26617339315
1.7175970744185132e+18,0.5913752288699999,-2.9807365265000003,9.257985420299999
1.7175970746185132e+18,0.5960155792099999,-3.0101054535,9.245306785550001
1.7175970748185132e+18,0.6110742645350001,-3.0361961975,9.238615699699999
1.7175970750185132e+18,0.6315217437799999,-3.06129899595,9.232343742349999
1.7175970752185132e+18,0.6201903076149999,-3.06480919645,9.23552462775
1.7175970754185132e+18,0.6143075409,-3.04020037085,9.24067391965
1.7175970756185132e+18,0.5959706726049999,-3.0144539108,9.24961782075
1.7175970758185132e+18,0.58537271119,-2.9708046797499996,9.256660675
1.7175970760185132e+18,0.5558166732800001,-2.9474532394000006,9.270185051
1.7175970762185132e+18,0.53987482453,-2.9054356154999996,9.287167236399998
1.7175970764185132e+18,0.5297034759549999,-2.87584215555,9.2841435242
1.7175970766185132e+18,0.526380386365,-2.8548408279999995,9.27814849095
1.7175970768185132e+18,0.5371280364900002,-2.8804825058,9.2770258255
1.7175970770185132e+18,0.55595139313,-2.9567563933,9.282212539599998
1.7175970772185132e+18,0.59152491759,-2.9663140182000003,9.25645859525
1.7175970774185132e+18,0.5886658630299999,-3.01643728635,9.24776916495
1.7175970776185132e+18,0.6137985992499999,-3.03517082975,9.23925936125
1.7175970778185132e+18,0.614801513665,-3.0517787933999996,9.233788238449998
1.7175970780185132e+18,0.6184614028999998,-3.0577064667,9.22979903415
1.7175970782185132e+18,0.620744155875,-3.0609996185500004,9.236258102399997
1.7175970784185132e+18,0.60828256989,-3.0301038666,9.2448801728
1.7175970786185132e+18,0.5873935089000001,-2.99907339485,9.248435279949998
1.7175970788185132e+18,0.57133939362,-2.9738059387,9.26297753905
1.7175970790185132e+18,0.545420791615,-2.92042694095,9.275626236099999
1.7175970792185132e+18,0.5277724914500002,-2.8920983505499995,9.29053523255
1.7175970794185132e+18,0.520841903695,-2.8363542709500003,9.284600074699998
1.7175970796185132e+18,0.506052658085,-2.8576699448000005,9.2818682556
1.7175970798185132e+18,0.53061657715,-2.8856243133,9.28930778515
1.7175970800185132e+18,0.5699472885,-2.9268336182,9.280326461749999
1.7175970802185132e+18,0.56394477082,-2.9513152083500005,9.2633742142
1.7175970804185132e+18,0.5930966491749999,-2.9925469665,9.25368186955
1.7175970806185132e+18,0.604390663135,-3.0365629349,9.2477467117
1.7175970808185132e+18,0.6181119979105263,-3.0578333082105265,9.244223905842105
1.7175970810185132e+18,0.5863382034350001,-3.02229759975,9.2407637329
1.7175970812185132e+18,0.603350326535,-2.9481642607499996,9.2647288971
1.7175970814185132e+18,0.29341234589,-2.8270810546500003,9.31789833065
1.7175970816185132e+18,0.30847103118749997,-2.6528284149999997,9.355911781349999
1.7175970818185132e+18,0.32598461152249997,-2.7098373640999998,9.38052809135
1.7175970820185132e+18,0.24688909148979996,-2.57309671785,9.413669174149998
1.7175970822185132e+18,0.5167329482899998,-2.4774905319499996,9.36261783605
1.7175970824185132e+18,0.27994784545850004,-2.7324403609999997,9.358995368950001
1.7175970826185132e+18,0.361094100955,-2.421723999,9.567638992300001
1.7175970828185132e+18,0.565673675535,-2.19604579935,9.3780657119
1.7175970830185132e+18,0.4248914337205,-2.3090458146,9.917940536500002
1.7175970832185132e+18,0.9137298889069998,-2.0433483353,10.8686659934
1.7175970834185132e+18,1.4322516173384998,-0.828646820046,9.592831604099999
1.7175970836185132e+18,2.2066287919499996,-0.47241011813184997,8.98421971895
1.7175970838185132e+18,2.28036545575,-0.13715229034399998,9.518862922750001
1.7175970840185132e+18,0.903214256205,-0.6414910125579499,9.80333885165
1.7175970842185132e+18,2.2868469773450006,-0.3082764358915,9.4575055159
1.7175970844185132e+18,0.464371833825,-0.14349160768049998,8.732203788600001
1.7175970846185132e+18,0.5365442505155,-0.5667439499574999,8.734583839399999
1.7175970848185132e+18,0.5647306365495,0.09384734344199999,9.638905792100001
1.7175970850185132e+18,0.3666849746715,0.41348515320449997,8.844006294249999
1.7175970852185132e+18,0.1328038330005,0.28008256530900005,9.03468727105
1.7175970854185132e+18,0.3489468612496,-0.37945342255500003,9.86145549785
1.7175970856185132e+18,0.667289863585,-0.5259537735049999,10.128627411550001
1.7175970858185132e+18,1.2444147262049998,-0.80163549045,11.242304008500001
1.7175970860185132e+18,0.9178912352555001,-0.6937398605049999,10.957498764500002
1.7175970862185132e+18,0.6933282165599999,-0.37228333282500004,10.183233856300001
1.7175970864185132e+18,0.054778587333500016,0.48162345886,9.442424377
1.7175970866185132e+18,0.39043309021,0.41891885374250004,8.190233322149998
1.7175970868185132e+18,0.13249697112855002,0.323103103639,7.817478469949999
1.7175970870185132e+18,0.1715283050564,-0.5555771713300001,9.6512700808
1.7175970872185132e+18,0.1362242202735,-1.133502868715,10.596412148299999
1.7175970874185132e+18,0.46336891937,-1.3596451034850001,11.734592790000002
1.7175970876185132e+18,0.5952371978819999,-1.1948602752300002,10.630346580300001
1.7175970878185132e+18,0.98231726075,-0.6954388275000001,9.615457054350001
1.7175970880185132e+18,-0.016069084167,0.06262227630600001,8.70068682865
1.7175970882185132e+18,0.290336242664,0.20413050842185002,7.3754701309
1.7175970884185132e+18,0.04597689057700001,-1.0468555526749999,9.02860242465
1.7175970886185132e+18,1.1612925797200002,-1.3002710724,10.286766059300001
1.7175970888185132e+18,1.8238971863,-2.1973480912,11.2372894375
1.7175970890185132e+18,1.5545173645649997,-1.70829258735,10.672251938099999
1.7175970892185132e+18,0.9511371002550002,-1.3106669540599998,10.188899575250002
1.7175970894185132e+18,1.16376244359,-0.427615768447,8.97668289175
1.7175970896185132e+18,0.1264944534125,-0.046560676571,7.5624088896999995
1.7175970898185132e+18,0.3028517953984736,-0.5115493854052632,8.368277025736845
1.7175970900185132e+18,0.29438532255384997,-1.7377513274999998,10.027662369500002
1.7175970902185132e+18,1.15186967468,-2.1184097443,10.665373741500002
1.7175970904185132e+18,0.7630981292450001,-2.4599694672,11.382704544500001
1.7175970906185132e+18,1.1846589889149999,-1.6404087524000002,9.98262851815
1.7175970908185132e+18,0.6821315002220001,-1.125906166155,9.2630673523
1.7175970910185132e+18,0.14123879241700005,-0.3861519928035,8.0395641404
1.7175970912185132e+18,0.20038829040550002,-0.5946534118400001,8.042453132599999
1.7175970914185132e+18,0.9048084411600001,-1.6227230299,9.835177642649999
1.7175970916185132e+18,0.97217585003,-1.8814075927999998,10.223806984700001
1.7175970918185132e+18,1.42666074365,-2.40367153935,11.006012878
1.7175970920185132e+18,1.134969818145,-2.1301154022000004,10.394871253500002
1.7175970922185132e+18,1.1822789383050003,-1.5402669982950001,9.644983154749998
1.7175970924185132e+18,0.68442922207,-0.65464116669,8.925242362999997
1.7175970926185132e+18,1.3130020980600001,-0.35112483214875,8.0367724456
1.7175970928185132e+18,0.6381828918549999,-0.68507288361,8.925010345450001
1.7175970930185132e+18,1.0165435867100001,-1.4637985153,9.387795478849998
1.7175970932185132e+18,1.32456555169,-1.01435064698,9.1478743972
1.7175970934185132e+18,1.681565666265,-1.35069371792,9.48202452855
1.7175970936185132e+18,1.787807235685,-2.51036217485,10.95970667245
1.7175970938185132e+18,0.5697975998299998,-3.8930518569,9.39386535675
1.7175970940185132e+18,1.0394609299,-2.71467979435,9.281142265349999
1.7175970942185132e+18,0.68957102966,-3.02593503565,9.291096565299998
1.7175970944185132e+18,0.754992485045,-3.2379915619000004,9.1491392669
1.7175970946185132e+18,0.682939819345,-3.2296164778999996,9.185259155299999
1.7175970948185132e+18,0.750239868165,-3.1877635117000005,9.200849235549999
1.7175970950185132e+18,0.618850593565,-3.1214738616499997,9.210840957699999
1.7175970952185132e+18,0.725668464665,-3.0205612107500004,9.2239312363
1.7175970954185132e+18,0.57174355316,-2.9631106797,9.196171463
1.7175970956185132e+18,0.68398015595,-3.09586960615,9.213482963599999
1.7175970958185132e+18,0.67638345337,-3.22202725975,9.174818366899999
1.7175970960185132e+18,0.72137239839,-3.33052912915,9.1604108276
1.7175970962185132e+18,0.72250254822,-3.3383803024,9.1325088501
1.7175970964185132e+18,0.7242239684999999,-3.34686765285,9.121005271849999
1.7175970966185132e+18,0.73514376069,-3.36507728585,9.119485931399998
1.7175970968185132e+18,0.70657566833,-3.3469200439,9.137770408649999
1.7175970970185132e+18,0.6732399902200001,-3.2864532853500004,9.1561896057
1.7175970972185132e+18,0.6702087936449999,-3.2198343201499995,9.180678680450002
1.7175970974185132e+18,0.64511347962,-3.12930258165,9.199606819200001
1.7175970976185132e+18,0.6118077392550001,-3.0438677444500004,9.20897733305
1.7175970978185132e+18,0.63669348907,-3.02207306675,9.21816073615
1.7175970980185132e+18,0.637861061105,-3.0902038879,9.2099652786
1.7175970982185132e+18,0.680514862065,-3.182464531,9.20207668315
1.7175970984185132e+18,0.68114355469,-3.1940579224,9.16746116645
1.7175970986185132e+18,0.69174900055,-3.25772801975,9.167176757850001
1.7175970988185132e+18,0.7056326294,-3.2972643561052632,9.15261440894737
1.7175970990185132e+18,0.6905589752249999,-3.3034205016500002,9.13702196505
1.7175970992185132e+18,0.701119514465,-3.31488665785,9.130226097149999
1.7175970994185132e+18,0.717293380735,-3.3470697326,9.140262725850002
1.7175970996185132e+18,0.6777456207299999,-3.312491638150001,9.14398997495
1.7175970998185132e+18,0.6794969787599998,-3.2788490982500003,9.14737294005
1.7175971000185132e+18,0.647433654775,-3.2452814025000003,9.168561378499998
1.7175971002185132e+18,0.6498586120549998,-3.20662429045,9.19096978005
1.7175971004185132e+18,0.61873084258,-3.1467038956000004,9.20649250045
1.7175971006185132e+18,0.6182892608599999,-3.0451176453000004,9.194405136099999
1.7175971008185132e+18,0.63631926727,-3.0911918333999995,9.204404342649998
1.7175971010185132e+18,0.64937212372,-3.1536344833500003,9.197077079800001
1.7175971012185132e+18,0.6802529068100001,-3.2134575807000005,9.1761281433
1.7175971014185132e+18,0.6897057495199999,-3.26783200845,9.1569829559
1.7175971016185132e+18,0.7226746902450001,-3.3204401091499998,9.1455617065
1.7175971018185132e+18,0.706186477655,-3.3262929382000004,9.1291333695
1.7175971020185132e+18,0.7077357559099999,-3.3418231431,9.1284298325
1.7175971022185132e+18,0.709659255975,-3.3292642594,9.1380997239
1.7175971024185132e+18,0.6872059478750001,-3.3100142899,9.14940870675
1.7175971026185132e+18,0.673831260685,-3.27593765255,9.161189209000002
1.7175971028185132e+18,0.639769592285,-3.2018941269499996,9.1716674194
1.7175971030185132e+18,0.6195466461250001,-3.15476463325,9.1955951615
1.7175971032185132e+18,0.6393055572549999,-3.11779900365,9.2049057999
1.7175971034185132e+18,0.6027216339050001,-3.0830337982,9.182033363299999
1.7175971036185132e+18,0.653982536305,-3.1575638123000003,9.192586418149999
1.7175971038185132e+18,0.668539764405,-3.2354767915000004,9.178949775649999
1.7175971040185132e+18,0.6833065566950001,-3.2478934707000002,9.15785115045
1.7175971042185132e+18,0.682004264845,-3.2969764022999994,9.15312847145
1.7175971044185132e+18,0.695483734135,-3.3206347045,9.14413966365
1.7175971046185132e+18,0.7099361801099999,-3.33183890525,9.11883478545
1.7175971048185132e+18,0.7114779739499999,-3.3691488189,9.130024017350001
1.7175971050185132e+18,0.69284172821,-3.33642686465,9.1334518891
1.7175971052185132e+18,0.6772741012600001,-3.29209655005,9.1443641967
1.7175971054185132e+18,0.67393604279,-3.26257044985,9.162049919250002
1.7175971056185132e+18,0.6370602264499999,-3.22201977535,9.183507797250002
1.7175971058185132e+18,0.624426498415,-3.13745313265,9.1942404786
1.7175971060185132e+18,0.6489679641699999,-3.0963860321500003,9.177722328300002
1.7175971062185132e+18,0.6538553009000001,-3.1825543441499997,9.1954005661
1.7175971064185132e+18,0.6612499237,-3.2028446502500003,9.170484878500002
1.7175971066185132e+18,0.68957851409,-3.2371083984999998,9.163067802499999
1.7175971068185132e+18,0.6997274093600001,-3.28628114305,9.1469313583
1.7175971070185132e+18,0.7030430145200001,-3.325626823350001,9.13592923735
1.7175971072185132e+18,0.71384305572,-3.3300725784500003,9.129073494
1.7175971074185132e+18,0.7287595367399999,-3.3677043228000003,9.1271799316
1.7175971076185132e+18,0.708356964105,-3.3308659285499997,9.12456037895
1.7175971078185132e+18,0.691530376231579,-3.310728462631579,9.144909378842106
1.7175971080185132e+18,0.6651942214900001,-3.2708257828500003,9.16475928505
1.7175971082185132e+18,0.654888153075,-3.2019914246,9.17239340975
1.7175971084185132e+18,0.629246475225,-3.1641351471,9.19257144925
1.7175971086185132e+18,0.6180422744850002,-3.10770998385,9.20567669685
1.7175971088185132e+18,0.615085922245,-3.0711036071499995,9.19280346685
1.7175971090185132e+18,0.64646067811,-3.1428194733000003,9.1950263443
1.7175971092185132e+18,0.650794166565,-3.2004122085499995,9.1812699508
1.7175971094185132e+18,0.68545458983,-3.2532523268999993,9.1601039658
1.7175971096185132e+18,0.70395611573,-3.3145498581,9.1425529632
1.7175971098185132e+18,0.712802719105,-3.3382605516,9.12768887335
1.7175971100185132e+18,0.706029304495,-3.3635055543,9.121589057849999
1.7175971102185132e+18,0.726970756535,-3.3516202696999997,9.11581855775
1.7175971104185132e+18,0.720444328315,-3.3678764649,9.118325843900001
1.7175971106185132e+18,0.69889663697,-3.3631612701500004,9.132643569999999
1.7175971108185132e+18,0.6940616912800001,-3.3063020095999995,9.136108863900002
1.7175971110185132e+18,0.661616661065,-3.26942619335,9.16436260995
1.7175971112185132e+18,0.6489754486049999,-3.20140015425,9.166989647000001
1.7175971114185132e+18,0.642478958125,-3.1743663711499996,9.195542770349999
1.7175971116185132e+18,0.6223533096299999,-3.1081889878499998,9.200220542999999
1.7175971118185132e+18,0.63101280213,-3.08923091125,9.187339828549998
1.7175971120185132e+18,0.650704353335,-3.14763945005,9.19493653105
1.7175971122185132e+18,0.6591991882349999,-3.2041319734,9.17894977565
1.7175971124185132e+18,0.6925722885200001,-3.2624656676,9.1697439194
1.7175971126185132e+18,0.6928192749050001,-3.3044234160499997,9.137156684799999
1.7175971128185132e+18,0.70612660217,-3.34317034145,9.131505935649999
1.7175971130185132e+18,0.71400022889,-3.346336258,9.12055620575
1.7175971132185132e+18,0.7176750869749999,-3.3517100829499995,9.12667099
1.7175971134185132e+18,0.706111633295,-3.34213748935,9.13989598845
1.7175971136185132e+18,0.6683526535000001,-3.29707369995,9.15384697725
1.7175971138185132e+18,0.648608711255,-3.2255748824499997,9.16471437825
1.7175971140185132e+18,0.6397321701199999,-3.18422337335,9.194517402599999
1.7175971142185132e+18,0.6226975936950001,-3.1173574218,9.200063369699999
1.7175971144185132e+18,0.6193745041,-3.0736707687,9.190243789650001
1.7175971146185132e+18,0.6232215042049999,-3.0986613007000003,9.197376457150002
1.7175971148185132e+18,0.64952181244,-3.1731838302,9.190543167200001
1.7175971150185132e+18,0.6790703659100001,-3.266469841,9.1702678299
1.7175971152185132e+18,0.698604743955,-3.2987202759,9.146684372
1.7175971154185132e+18,0.7040534133949999,-3.3323852691,9.13503110505
1.7175971156185132e+18,0.717832260135,-3.3509541550499997,9.1251217118
1.7175971158185132e+18,0.7227570190500001,-3.37050350195,9.12465019225
1.7175971160185132e+18,0.7033199386700001,-3.3461491469999998,9.126244377199999
1.7175971162185132e+18,0.6929764480549999,-3.3128957976500004,9.14035253915
1.7175971164185132e+18,0.6726038131700001,-3.27565324395,9.159639930599997
1.7175971166185132e+18,0.6499110031199999,-3.1966101149999995,9.1754096374
1.7175971168185132e+18,0.614850359463158,-3.160897931578947,9.199010033842105
1.7175971170185132e+18,0.62579615021,-3.1050979156,9.206193122950001
1.7175971172185132e+18,0.6221886520400001,-3.0560524062999996,9.1896525193
1.7175971174185132e+18,0.6480848007299999,-3.1412028351000005,9.196186432
1.7175971176185132e+18,0.663525192245,-3.2011531677000002,9.188672058100002
1.7175971178185132e+18,0.6855593719499999,-3.2341445618,9.160642845099998
1.7175971180185132e+18,0.706328681945,-3.2932716065500003,9.151556739750001
1.7175971182185132e+18,0.692205551155,-3.3214579925500005,9.133204902600003
1.7175971184185132e+18,0.7183486862149999,-3.3475487365999994,9.1281828461
1.7175971186185132e+18,0.711238471985,-3.356986610400001,9.118655159
1.7175971188185132e+18,0.717465522765,-3.3545766219999997,9.1353080293
1.7175971190185132e+18,0.6866071930000001,-3.3354688568,9.134776634100001
1.7175971192185132e+18,0.670964721685,-3.27724742885,9.15562827315
1.7175971194185132e+18,0.655374641415,-3.2357462309999994,9.17624040995
1.7175971196185132e+18,0.6338269500699999,-3.1505883179500005,9.1960442276
1.7175971198185132e+18,0.6053411865299999,-3.0954504776,9.203236770599998
1.7175971200185132e+18,0.602040550235,-3.0547201766,9.18561840805
1.7175971202185132e+18,0.646340927115,-3.1416069945999996,9.203229286249998
1.7175971204185132e+18,0.6447317733699999,-3.19048784635,9.185289093050002
1.7175971206185132e+18,0.6824084243799999,-3.2393312759499997,9.17467616265
1.7175971208185132e+18,0.6857913894600001,-3.2867975692500004,9.1431517182
1.7175971210185132e+18,0.71191955565,-3.3266821289,9.1335042802
1.7175971212185132e+18,0.70030371093,-3.3519421004499996,9.1242610016
1.7175971214185132e+18,0.7298223266549999,-3.3429308395999997,9.11632749935
1.7175971216185132e+18,0.7199503555249999,-3.3749342880499995,9.128018188449998
1.7175971218185132e+18,0.688395973205,-3.357652725250001,9.1327708054
1.7175971220185132e+18,0.6890096969500001,-3.30753694155,9.1407117918
1.7175971222185132e+18,0.6611152038449999,-3.2722178878499997,9.16249150075
1.7175971224185132e+18,0.6489455108650001,-3.1955024186000003,9.17986287685
1.7175971226185132e+18,0.613125,-3.1508802109999996,9.19388871
1.7175971228185132e+18,0.627906761175,-3.0901440125499997,9.17388281245
1.7175971230185132e+18,0.637464385985,-3.1605575866499995,9.1981398697
1.7175971232185132e+18,0.6601571960349999,-3.2085477904500004,9.175207557650001
1.7175971234185132e+18,0.676757675165,-3.26119331355,9.156848235999998
1.7175971236185132e+18,0.704001022325,-3.31121179955,9.14134796905
1.7175971238185132e+18,0.705063812255,-3.3465233688,9.132680992000001
1.7175971240185132e+18,0.704517448425,-3.3554897231499994,9.1276514511
1.7175971242185132e+18,0.70406838226,-3.3313075102999994,9.11201646415
1.7175971244185132e+18,0.7261549529950001,-3.3751663055499996,9.1293953247
1.7175971246185132e+18,0.6888974304100001,-3.3481774292499993,9.13006143945
1.7175971248185132e+18,0.6764208755349999,-3.3129781265,9.146789154150001
1.7175971250185132e+18,0.6596632232649999,-3.265818695,9.161585884099997
1.7175971252185132e+18,0.642928024295,-3.1830108947499998,9.180686164900001
1.7175971254185132e+18,0.6082376632750001,-3.1380518875,9.203453819349999
1.7175971256185132e+18,0.622862251265,-3.06139629375,9.172977195749999
1.7175971258185132e+18,0.6449535490263159,-3.1399809024210525,9.211954169
1.7175971260185132e+18,0.6447841644200001,-3.17095346835,9.1878936768
1.7175971262185132e+18,0.6831269302299999,-3.23353832245,9.179413810699998
1.7175971264185132e+18,0.6874679031500001,-3.27559336845,9.14761244205
1.7175971266185132e+18,0.707421409595,-3.30941553495,9.136640258850003
1.7175971268185132e+18,0.7003111953800001,-3.3475637055,9.135435264600002
1.7175971270185132e+18,0.7331454162650001,-3.3553325500999995,9.1297321242
1.7175971272185132e+18,0.7060218200750001,-3.33513954165,9.1210277253
1.7175971274185132e+18,0.6927743682950002,-3.3276401368000004,9.1428523406
1.7175971276185132e+18,0.6655983810449999,-3.2757505416499995,9.15557588195
1.7175971278185132e+18,0.65150518799,-3.2340996551000005,9.1702902833
1.7175971280185132e+18,0.641333839435,-3.1589184952,9.191957725600002
1.7175971282185132e+18,0.610729980475,-3.1080093613500006,9.194741935749999
1.7175971284185132e+18,0.6287599868749999,-3.1025008162999996,9.181651657100002
1.7175971286185132e+18,0.6583010559049999,-3.1839314804499996,9.1900866165
1.7175971288185132e+18,0.6797664184500001,-3.2369811630000003,9.163494415249998
1.7175971290185132e+18,0.69362759399,-3.2971859665000003,9.155770477200003
1.7175971292185132e+18,0.6991511077899999,-3.3311278839,9.13916251375
1.7175971294185132e+18,0.737127136235,-3.3280517807499996,9.12099778755
1.7175971296185132e+18,0.711096267705,-3.3848811035499997,9.126910491850001
1.7175971298185132e+18,0.71594618226,-3.34538573445,9.125144165
1.7175971300185132e+18,0.7052883453400001,-3.32022306075,9.1403151168
1.7175971302185132e+18,0.6609804840049999,-3.2642170258,9.1593929445
1.7175971304185132e+18,0.646947166445,-3.2066916504,9.178283660900002
1.7175971306185132e+18,0.6101461944550002,-3.1485375824000004,9.20691911315
1.7175971308185132e+18,0.6375916214,-3.0646520233,9.17118093105
1.7175971310185132e+18,0.6242393875050001,-3.1321466675,9.20368583675
1.7175971312185132e+18,0.662365104675,-3.1755339433000005,9.18125498205
1.7175971314185132e+18,0.67459467316,-3.2494876555,9.16204991915
1.7175971316185132e+18,0.7112010498049999,-3.31320265975,9.1510178604
1.7175971318185132e+18,0.7065008239750001,-3.3314497146499997,9.1338635331
1.7175971320185132e+18,0.716919158935,-3.3226255645499996,9.11379775995
1.7175971322185132e+18,0.728160781865,-3.3797093583,9.14066688535
1.7175971324185132e+18,0.69121760558,-3.3478555984999994,9.133758750949998
1.7175971326185132e+18,0.679736480705,-3.2864383163,9.14601825715
1.7175971328185132e+18,0.6577995987049998,-3.24902362065,9.169332275349998
1.7175971330185132e+18,0.6446868667600001,-3.1654524078,9.19495898435
1.7175971332185132e+18,0.62066931153,-3.0829439850000004,9.1772059021
1.7175971334185132e+18,0.6347999267550001,-3.1163021162999995,9.19559516135
1.7175971336185132e+18,0.6733148346,-3.1855855407499996,9.193709083600002
1.7175971338185132e+18,0.6690412216249999,-3.21208792885,9.1680674057
1.7175971340185132e+18,0.6949298858649999,-3.2634610977500005,9.153001236
1.7175971342185132e+18,0.709561958325,-3.3205224379500002,9.139207420249999
1.7175971344185132e+18,0.7256684646700001,-3.3499662095,9.1254585112
1.7175971346185132e+18,0.7228941024105263,-3.3819093884210525,9.128569673263158
1.7175971348185132e+18,0.7096891937249998,-3.3459395828500007,9.1297919998
1.7175971350185132e+18,0.688553146365,-3.3023577118,9.1503891678
1.7175971352185132e+18,0.6627019043,-3.2326551590499997,9.16602415465
1.7175971354185132e+18,0.630503860475,-3.1811772079500003,9.184914871099998
1.7175971356185132e+18,0.628490547165,-3.13433212285,9.20429207615
1.7175971358185132e+18,0.62313169097,-3.0753023758,9.188986404300001
1.7175971360185132e+18,0.6369329910299999,-3.1243778228499997,9.192474151549998
1.7175971362185132e+18,0.66433351135,-3.1919473115,9.188425071800001
1.7175971364185132e+18,0.67679509735,-3.2384481123499995,9.162790878249998
1.7175971366185132e+18,0.716747016905,-3.3031585464,9.141482688900002
1.7175971368185132e+18,0.70459977722,-3.3502131958,9.136078926100001
1.7175971370185132e+18,0.717061363215,-3.34028134925,9.11840068815
1.7175971372185132e+18,0.7122713241599999,-3.3617242584,9.129934204049999
1.7175971374185132e+18,0.698125740045,-3.3441433181,9.1334967956
1.7175971376185132e+18,0.672229591375,-3.28517344655,9.153562568649999
1.7175971378185132e+18,0.646108909605,-3.2281869508,9.171158477850001
1.7175971380185132e+18,0.6435192947300001,-3.165010826099999,9.1907901535
1.7175971382185132e+18,0.599009353625,-3.0975910263,9.200796844500001
1.7175971384185132e+18,0.6169869689899999,-3.0689480895999997,9.1779618301
1.7175971386185132e+18,0.65952850342,-3.1803015289500003,9.196313667350001
1.7175971388185132e+18,0.66337550354,-3.2158526000500003,9.17166741945
1.7175971390185132e+18,0.6952517166050001,-3.2781081390000004,9.15536631775
1.7175971392185132e+18,0.70306546784,-3.3339345475,9.136251068199998
1.7175971394185132e+18,0.7158788223300001,-3.3466131821000005,9.1248148498
1.7175971396185132e+18,0.7071220321649999,-3.3729134902499993,9.125787826549999
1.7175971398185132e+18,0.7178921356099999,-3.3520319139000003,9.12402149975
1.7175971400185132e+18,0.6867194595349999,-3.32154780575,9.13994089505
1.7175971402185132e+18,0.6651792526199999,-3.2771875535,9.159086082449999
1.7175971404185132e+18,0.63452300261,-3.1948587570499996,9.174039985650001
1.7175971406185132e+18,0.629590759275,-3.1375728836,9.20245838935
1.7175971408185132e+18,0.6156771926950002,-3.05641165925,9.1707094117
1.7175971410185132e+18,0.6369704132,-3.1636486588999992,9.194375198400001
1.7175971412185132e+18,0.6731576614399999,-3.22549255375,9.1715476685
1.7175971414185132e+18,0.7001240844799999,-3.2944466628500004,9.1551567536
1.7175971416185132e+18,0.6995702362,-3.323628479,9.135772064200001
1.7175971418185132e+18,0.72233040619,-3.34564020535,9.1257878264
1.7175971420185132e+18,0.720234764095,-3.3552502212,9.123205696100001
1.7175971422185132e+18,0.72619237519,-3.3571437835499998,9.12602732845
1.7175971424185132e+18,0.7055203628650001,-3.3371453705,9.13101196285
1.7175971426185132e+18,0.667215019225,-3.2907044449,9.149588333199999
1.7175971428185132e+18,0.67207241822,-3.2381262818500005,9.168553894000002
1.7175971430185132e+18,0.6327566757299999,-3.17226324455,9.1863668519
1.7175971432185132e+18,0.6216647415150001,-3.1143486787,9.203790618899998
1.7175971434185132e+18,0.61910506439,-3.0597646865499994,9.1846903382
1.7175971436185132e+18,0.6483963895947369,-3.1284076007368418,9.198687021421053
1.7175971438185132e+18,0.657238265995,-3.1989228059,9.188215507549998
1.7175971440185132e+18,0.684653755185,-3.2340098419,9.1606203919
1.7175971442185132e+18,0.7094122695949999,-3.3026196669499996,9.1490270004
1.7175971444185132e+18,0.70792286681,-3.3317416076999997,9.1372764359
1.7175971446185132e+18,0.7124958572400002,-3.3376617965500004,9.12696288295
1.7175971448185132e+18,0.70957692718,-3.3670831146499998,9.123160789549999
1.7175971450185132e+18,0.71692664338,-3.3354389191000005,9.13334710685
1.7175971452185132e+18,0.6900650024449999,-3.3038845367,9.1403749923
1.7175971454185132e+18,0.6541322250349999,-3.2572864379500004,9.166959709300002
1.7175971456185132e+18,0.664737670905,-3.19198473355,9.1799826279
1.7175971458185132e+18,0.6193071441600001,-3.137183693,9.195737365750002
1.7175971460185132e+18,0.626305091855,-3.0706769943000003,9.1647667694
1.7175971462185132e+18,0.6520515518149999,-3.1945593796000002,9.1870179977
1.7175971464185132e+18,0.6964791641150001,-3.2526909942000004,9.1708740692
1.7175971466185132e+18,0.6941889266999999,-3.2966770247999997,9.14433425915
1.7175971468185132e+18,0.7115677871649999,-3.3401092073000003,9.12789095305
1.7175971470185132e+18,0.7305782546949999,-3.36179910285,9.11803395085
1.7175971472185132e+18,0.7136709136949999,-3.3757575759000007,9.125600715700001
1.7175971474185132e+18,0.7081698532149999,-3.3423545380500004,9.139184967
1.7175971476185132e+18,0.676271186835,-3.29264291385,9.150778358500002
1.7175971478185132e+18,0.65400498963,-3.2042068176000003,9.178874931500001
1.7175971480185132e+18,0.619718788145,-3.1449974441500004,9.193372283900002
1.7175971482185132e+18,0.61691960907,-3.0742470704500002,9.17213893895
1.7175971484185132e+18,0.653256546015,-3.1445334091500006,9.2046064225
1.7175971486185132e+18,0.6559284896850001,-3.1899339981,9.177587608299998
1.7175971488185132e+18,0.693043807995,-3.26132803355,9.16272351845
1.7175971490185132e+18,0.70177814483,-3.3255444947500004,9.1416024398
1.7175971492185132e+18,0.716732048035,-3.34352959455,9.12690300745
1.7175971494185132e+18,0.71022058869,-3.3531695481500003,9.1170010987
1.7175971496185132e+18,0.7163653106700001,-3.3561408691,9.12849719245
1.7175971498185132e+18,0.70870124816,-3.3328418197000005,9.13748600015
1.7175971500185132e+18,0.6633979568399999,-3.2900682678999997,9.15018708805
1.7175971502185132e+18,0.6520216140650001,-3.2097078781,9.170342674199997
1.7175971504185132e+18,0.628759986875,-3.15569270325,9.199921165549998
1.7175971506185132e+18,0.6266718292250001,-3.0593680113999997,9.16770066845
1.7175971508185132e+18,0.6313046951350001,-3.12419819645,9.20313947295
1.7175971510185132e+18,0.657724754335,-3.2021261443999998,9.18793858335
1.7175971512185132e+18,0.6965764617900001,-3.2429238052500002,9.161211662149999
1.7175971514185132e+18,0.6926920394849999,-3.3013622818499995,9.148465667699998
1.7175971516185132e+18,0.71503308104,-3.3267345199999996,9.13382611075
1.7175971518185132e+18,0.71900731659,-3.3653766632,9.129275573600001
1.7175971520185132e+18,0.7158638534599999,-3.3597259139999998,9.12284644315
1.7175971522185132e+18,0.689264167785,-3.32347130575,9.14109349825
1.7175971524185132e+18,0.6628846821105262,-3.2700288873157897,9.161501191789474
1.7175971526185132e+18,0.6649771728499999,-3.2093561097,9.17932399745
1.7175971528185132e+18,0.61431502532,-3.1354398194,9.197406395049999
1.7175971530185132e+18,0.6082676010099999,-3.0668898696999998,9.18044666285
1.7175971532185132e+18,0.65833099365,-3.1592328416,9.195722396849998
1.7175971534185132e+18,0.64889311981,-3.20809872445,9.174683647150001
1.7175971536185132e+18,0.6959777069149999,-3.2641571503,9.167386321999999
1.7175971538185132e+18,0.6979386291399999,-3.32368087005,9.135577468800001
1.7175971540185132e+18,0.7302938461349999,-3.35131340785,9.1256381379
1.7175971542185132e+18,0.705902069085,-3.35877539065,9.1189545364
1.7175971544185132e+18,0.708791061395,-3.35812424465,9.133234840500002
1.7175971546185132e+18,0.72245015716,-3.3395927809999995,9.138047332700001
1.7175971548185132e+18,0.65443160247,-3.2814911041500006,9.156915596100003
1.7175971550185132e+18,0.6471193084700001,-3.2128737946,9.186486602700002
1.7175971552185132e+18,0.6277046813949998,-3.13767766575,9.188559791649999
1.7175971554185132e+18,0.616163681035,-3.0761705703500004,9.1716749039
1.7175971556185132e+18,0.64484403991,-3.15655341345,9.198611389249999
1.7175971558185132e+18,0.6696100387649999,-3.23341857145,9.17587367255
1.7175971560185132e+18,0.7011719055150001,-3.2644116211,9.15868940735
1.7175971562185132e+18,0.697369812005,-3.32226631165,9.1414003601
1.7175971564185132e+18,0.713528709415,-3.3354014969,9.1275616378
1.7175971566185132e+18,0.72913375855,-3.37917796335,9.126903007550002
1.7175971568185132e+18,0.6944733352599999,-3.3514855498000005,9.137688079900002
1.7175971570185132e+18,0.6788757705649999,-3.2914753417499996,9.148862342799998
1.7175971572185132e+18,0.653286483755,-3.23348593145,9.180049987850001
1.7175971574185132e+18,0.63596749879,-3.148956711,9.1915460815
1.7175971576185132e+18,0.61164308166,-3.0686561966,9.1641156234
1.7175971578185132e+18,0.64388603211,-3.1712528458,9.204045089749998
1.7175971580185132e+18,0.68222879791,-3.2088471679499997,9.178680335900001
1.7175971582185132e+18,0.67911527252,-3.2698004150499997,9.155418708849998
1.7175971584185132e+18,0.713236816405,-3.31320265955,9.140794120799999
1.7175971586185132e+18,0.732748741155,-3.35809430695,9.1295450134
1.7175971588185132e+18,0.7268510055500002,-3.3727188948999993,9.119920028700001
1.7175971590185132e+18,0.7355928268349999,-3.3659454803499997,9.12655123895
1.7175971592185132e+18,0.7004084930400001,-3.32345633715,9.1328007431
1.7175971594185132e+18,0.67899552154,-3.2886387405,9.15870437625
1.7175971596185132e+18,0.6546336822599998,-3.2131881408,9.17854561615
1.7175971598185132e+18,0.6329138488800001,-3.1551014327500004,9.20497315975
1.7175971600185132e+18,0.63082569123,-3.0628183366,9.21418650045
1.7175971602185132e+18,0.609599830635,-3.0247899169999997,9.187714050300002
1.7175971604185132e+18,0.645352981565,-3.12410089885,9.20629042045
1.7175971606185132e+18,0.682034202575,-3.18917807005,9.194090789799999
1.7175971608185132e+18,0.6798637161200001,-3.2392564315499994,9.162790878350002
1.7175971610185132e+18,0.714075073235,-3.3032782974500003,9.150044883700001
1.7175971612185132e+18,0.72207593537,-3.34607430275,9.128699272099999
1.7175971614185132e+18,0.7191597627421054,-3.3609766025789476,9.120525874
1.7175971616185132e+18,0.7263645172100001,-3.36507728585,9.1320223618
1.7175971618185132e+18,0.7033199386450001,-3.3463063201000005,9.13473172755
1.7175971620185132e+18,0.6837331695549999,-3.2702045745000006,9.159557602050002
1.7175971622185132e+18,0.644050689695,-3.2060928955000003,9.177378044200001
1.7175971624185132e+18,0.628288467405,-3.1478564986999995,9.198798499999999
1.7175971626185132e+18,0.63626687622,-3.042670234649999,9.179436264100001
1.7175971628185132e+18,0.625362052915,-3.1136675949000003,9.2007444534
1.7175971630185132e+18,0.659244094855,-3.1946491928999996,9.19109701535
1.7175971632185132e+18,0.708858421335,-3.26929147345,9.16313516245
1.7175971634185132e+18,0.7065307617250001,-3.3174538193,9.1422461013
1.7175971636185132e+18,0.7285050659150001,-3.3483046645,9.132164566049997
1.7175971638185132e+18,0.7221358108449999,-3.3723371886500004,9.1251591339
1.7175971640185132e+18,0.7141723709050001,-3.3528776550000003,9.1284672547
1.7175971642185132e+18,0.69651658631,-3.3009805754999997,9.14286730955
1.7175971644185132e+18,0.6493571548449999,-3.2443009415999997,9.1690029602
1.7175971646185132e+18,0.663659912105,-3.1855331496999995,9.191605956999998
1.7175971648185132e+18,0.611246406555,-3.1137948301500007,9.2053249282
1.7175971650185132e+18,0.6084322586049999,-3.0338760223,9.1862396163
1.7175971652185132e+18,0.650988761905,-3.1125449295,9.212457595900002
1.7175971654185132e+18,0.652575462345,-3.1753618011499998,9.1911194686
1.7175971656185132e+18,0.69424131774,-3.23561151125,9.172528129499998
1.7175971658185132e+18,0.70412077332,-3.3027019958499997,9.14461866765
1.7175971660185132e+18,0.7326738967850001,-3.346485946599999,9.131760406550002
1.7175971662185132e+18,0.724441017155,-3.3542996977999997,9.12254706565
1.7175971664185132e+18,0.7145166549649999,-3.3780253600999997,9.1273520736
1.7175971666185132e+18,0.74351136017,-3.3479678651,9.133354591349999
1.7175971668185132e+18,0.6772142257799999,-3.2932790909999996,9.149625755349998
1.7175971670185132e+18,0.65442411803,-3.2212114563500003,9.180162254399999
1.7175971672185132e+18,0.645757141115,-3.1491812438499998,9.184705307
1.7175971674185132e+18,0.664400871275,-3.1020517502000002,9.1700507812
1.7175971676185132e+18,0.5087545394849999,-3.13936914835,9.240643981900002
1.7175971678185132e+18,0.8664806442399999,-3.1014529952000003,9.1629480515
1.7175971680185132e+18,0.7177873535050001,-3.1157332993,9.220144111599998
1.7175971682185132e+18,0.5080959091250001,-3.0947469406,9.268336395399999
1.7175971684185132e+18,0.8666078796599999,-3.1404918135999997,9.142418243450003
1.7175971686185132e+18,0.624344169635,-3.0556407622499995,9.2845102615
1.7175971688185132e+18,0.444493171715,-2.7696978835499997,9.867345749100002
1.7175971690185132e+18,0.10241702270299999,-1.93022856895,10.4369113315
1.7175971692185132e+18,-0.49871791078350014,-2.0637958145000006,10.529433928249997
1.7175971694185132e+18,-0.9620119858025001,-0.27283014679305,8.990319534349998
1.7175971696185132e+18,-0.42881327807999997,-0.30972093193350003,10.50246750665
1.7175971698185132e+18,-0.623086784425,-1.1297606505400002,9.207622650099998
1.7175971700185132e+18,0.5751714247715,-1.5365622024915,8.069988372850002
1.7175971702185132e+18,-0.6197743305852632,-0.15366728925263157,9.136518932789475
1.7175971704185132e+18,-0.15256274414465001,0.12392729190499999,8.946528099000002
1.7175971706185132e+18,-0.3838168487410001,0.05980064392330001,8.757074569700002
1.7175971708185132e+18,-0.143319465648,-0.1484537887515,9.471456504950002
1.7175971710185132e+18,0.5989719314499999,-0.09468560027799999,10.3502041384
1.7175971712185132e+18,1.010967681895,-0.579819259645,10.7703130185
1.7175971714185132e+18,1.24108415218,-0.3031645660445,11.232080267999999
1.7175971716185132e+18,1.1480675811299998,0.001803749080999989,10.3226838685
1.7175971718185132e+18,1.12452902987,0.318694770815,9.45990802
1.7175971720185132e+18,0.50042436218,0.451745590195,8.83840793615
1.7175971722185132e+18,0.0267344055101,0.5384378127753,7.668740272449999
1.7175971724185132e+18,0.36314483642600004,-0.21666693878600002,9.087587264999998
1.7175971726185132e+18,0.643661499,-0.679908622715,9.919901459150001
1.7175971728185132e+18,1.480668434065,-1.3223651274850001,10.71830367225
1.7175971730185132e+18,1.8584528273500003,-1.6448919296,11.3446162485
1.7175971732185132e+18,1.5933241653499999,-0.9335561599060002,10.497655014100001
1.7175971734185132e+18,1.4517710266,-0.04543052673715,9.387383834900003
1.7175971736185132e+18,0.40505767822690003,0.13144166564889997,8.2965721894
1.7175971738185132e+18,0.3486250305155,0.007664062502000005,7.607996589650002
1.7175971740185132e+18,0.511007354715,-0.9281074904976998,9.53737193325
1.7175971742185132e+18,0.945224395765,-1.4984140320000001,10.0870962752
1.7175971744185132e+18,1.2723541259600002,-1.9920500106500003,10.100860153200003
1.7175971746185132e+18,1.9194509810499998,-2.36826267245,11.0469003525
1.7175971748185132e+18,2.16105606085,-1.8066605300999998,10.22945024865
1.7175971750185132e+18,1.8516644439500003,-1.586737861545,9.63647335085
1.7175971752185132e+18,0.90988288878,-0.338550979616,8.48672925575
1.7175971754185132e+18,0.5734574890115001,-0.010837463382599982,7.6160947494
1.7175971756185132e+18,0.9633067931899999,-1.06101610572,8.961728988800001
1.7175971758185132e+18,1.1145148544899999,-1.7877398757999998,10.075255897400002
1.7175971760185132e+18,1.6105608215,-2.0594548416,9.98557738445
1.7175971762185132e+18,1.9574344942,-2.33905091855,11.51541108
1.7175971764185132e+18,1.9352132034500003,-1.75323662565,10.21867266095
1.7175971766185132e+18,1.5676750030450002,-1.308810813915,9.075881607100001
1.7175971768185132e+18,0.556916885365,-0.519345016475,8.355774078400001
1.7175971770185132e+18,0.794338165275,-0.17578694915499998,7.9425059738999995
1.7175971772185132e+18,0.8442443847515001,-1.1478655014099999,9.064714828400001
1.7175971774185132e+18,1.3030403137,-2.0455263061499998,9.93102333105
1.7175971776185132e+18,1.4013184433299999,-2.4741300200999996,10.639282997
1.7175971778185132e+18,1.5074178085,-2.34858609015,10.521440551649999
1.7175971780185132e+18,1.1961326292899999,-1.9281404114500003,9.848784347999999
1.7175971782185132e+18,1.1265647964549999,-1.8370922470499997,10.129735106950003
1.7175971784185132e+18,0.72362521363,-0.52532508087,9.14290473195
1.7175971786185132e+18,0.9532477112140001,-1.1409423981000002,8.85192482755
1.7175971788185132e+18,1.5262636184199998,-0.877250747635,9.334618560749998
1.7175971790185132e+18,0.4577559862194737,-1.615385525389158,9.507920283105264
1.7175971792185132e+18,1.4839316482350002,-1.567023857085,9.7239514384
1.7175971794185132e+18,1.5379767607900001,-0.5747597809119498,9.276748901499998
1.7175971796185132e+18,-0.09522447967700005,1.13217812353,10.02450393725
1.7175971798185132e+18,-0.23242916102049999,2.2662498093249996,9.19483174885
1.7175971800185132e+18,0.26175318141799997,1.33846414956,9.593273185700001
1.7175971802185132e+18,0.26850414277915,1.10575057986,9.69708979815
1.7175971804185132e+18,0.1921628951998,1.2808414765149998,9.56323814395
1.7175971806185132e+18,-0.29988638306265003,1.3194985886050001,9.6814099045
1.7175971808185132e+18,-0.7431745605814999,1.4439647597699998,9.657826446449999
1.7175971810185132e+18,-0.7311844940440999,1.3681399382600001,9.653051376499999
1.7175971812185132e+18,-0.70720436094,1.399005752645,9.636989776499998
1.7175971814185132e+18,-1.1410172424475,2.6559120025,9.648717888099998
1.7175971816185132e+18,-0.18398240666999993,5.52241358211,9.15440831025
1.7175971818185132e+18,-1.163582817134,7.359161544900002,9.3435400093
1.7175971820185132e+18,-6.305031120685,6.24459429925,3.102223892215
1.7175971822185132e+18,-11.46855102625,23.896681594500002,-6.0396704407
1.7175971824185132e+18,-3.1054871063049996,15.443969100699999,3.6984190978549996
1.7175971826185132e+18,0.5639447707499999,4.720680793849999,9.480235747550001
1.7175971828185132e+18,0.532981658923,1.3499677276800002,10.2877989122
1.7175971830185132e+18,0.18837645094,2.199947911909091,8.471633148363638
1.7175971832185132e+18,,,
