Timestamps,Gyro_X,Gyro_Y,Gyro_Z
1.717597008029775e+18,-0.001984327019000001,-0.033454437912449994,-0.005171095940734999
1.717597008229775e+18,0.0633476591038,-0.026207707599699998,-0.05054159828875
1.717597008429775e+18,0.5235371308304999,0.2223247761833,-0.105082528759
1.717597008629775e+18,1.6593676969649997,-0.55124734488,-0.12760592104700003
1.717597008829775e+18,0.44164640977899994,-0.20006417668550003,0.2350684300045
1.717597009029775e+18,2.18569708475,0.5139395450759999,1.4017516344099998
1.717597009229775e+18,0.012556645384999987,0.4603612573099999,1.04357163461
1.717597009429775e+18,-1.4197900962599999,0.2453591511865,-0.9179472458054999
1.717597009629775e+18,3.194166812285,2.6119795979,0.8338535154205001
1.717597009829775e+18,1.56041957448,0.19788213499325,-1.7517259881250002
1.717597010029775e+18,1.23614496667,-0.25136614542405,-0.21788710924235
1.717597010229775e+18,0.781485436548,-0.18651934717684998,0.1919451452305
1.717597010429775e+18,-0.06465100275944999,0.014972783258499999,-0.12807872761650002
1.717597010629775e+18,-0.348802209086,-0.024175204989850003,-0.08168677771704999
1.717597010829775e+18,-0.19447770659099994,0.0007386223525799992,-0.0021455987352500014
1.717597011029775e+18,0.17798794323800002,0.0432223543495,0.04512234132356
1.717597011229775e+18,0.0395916675225,-0.1803297872263,0.18312915213815
1.717597011429775e+18,-0.1659134665752,0.09988447122855,0.03166084177200001
1.717597011629775e+18,-0.107357084008,0.07348195091250001,-0.32440243736
1.717597011829775e+18,0.4031338010651499,0.05905577633249999,0.006587508477999986
1.717597012029775e+18,-0.35125842579999994,-0.30791951964745,0.5810808029679999
1.717597012229775e+18,-0.47637053132000007,-0.499062788475,0.17113031698909997
1.717597012429775e+18,-0.6227336496150001,-0.1946103593084,-0.18092510774999998
1.717597012629775e+18,-0.820517860355,0.48960108682549996,-0.27854949972890003
1.717597012829775e+18,-0.5540779367149999,-0.0843602370515,-0.0546952277465
1.717597013029775e+18,-0.5726385042150001,-0.0717917881905,-0.18852223009299998
1.717597013229775e+18,-0.86946674585,-0.1695239005695,-0.30727196335
1.717597013429775e+18,-1.3519723831500001,-0.165372587844,-0.31821910292
1.717597013629775e+18,-0.878576096865,-0.045771911459500006,-0.08604132193155001
1.717597013829775e+18,-0.435655963425,-0.36210156531000004,-0.004551379708399995
1.717597014029775e+18,-0.12743472279490003,-0.16398915873805,0.07914620057727
1.717597014229775e+18,0.045290368098700004,0.14194809421350002,-0.14922313867599998
1.717597014429775e+18,-0.012133253872499996,-0.5240899100950001,-0.25274670980650005
1.717597014629775e+18,-0.061903062132700006,-0.059296315073200004,0.04701277427449999
1.717597014829775e+18,0.05849306501749999,-0.42078192761885,-0.230024573585
1.717597015029775e+18,0.14332078685850003,-0.1656904795752,-0.0194170247873
1.717597015229775e+18,0.11410167589800002,0.0480572751254,0.012995307477000001
1.717597015429775e+18,0.027549560366499998,0.22183906882999999,0.09592459238249999
1.717597015629775e+18,-0.042918043187100005,0.14807006120000002,0.10282622501349999
1.717597015829775e+18,-0.1997848707225,0.1174219753535,0.03578416537486
1.717597016029775e+18,-0.14567541256849997,-0.0884455482278,-0.05134471899805001
1.717597016229775e+18,-0.045392850041499996,-0.0992892964795,-0.028302195202699998
1.717597016429775e+18,0.024246295748824996,-0.13087987341,-0.0876081030825
1.717597016629775e+18,0.0779593491967,-0.027111145482,-0.01325043826641
1.717597016829775e+18,0.13845172151700003,0.145770559829,0.030016045387999995
1.717597017029775e+18,-0.025798881818473684,0.08386152003473683,0.0007409394319210534
1.717597017229775e+18,-0.087634087859,0.0554078851425,0.0344053045033
1.717597017429775e+18,-0.16855016956154997,0.10890442878050002,0.06150663061911499
1.717597017629775e+18,-0.21559146977000002,-0.0756632865414,-0.04339933512045
1.717597017829775e+18,-0.05171670927095001,0.0101777800949905,-0.0718309889055
1.717597018029775e+18,0.0864481433725,-0.10461990875485001,-0.050451204826999996
1.717597018229775e+18,0.1461010851845,-0.08768153600199999,-0.06614741122457
1.717597018429775e+18,0.15241554565749998,0.08138583107299999,0.017537161776850003
1.717597018629775e+18,-0.0862096705251,-0.0178124400829,0.033753247139949996
1.717597018829775e+18,-0.07909839246950001,0.09678302077380002,0.03955639833435
1.717597019029775e+18,-0.175552259392,-0.05644039272782001,-0.0688159146062
1.717597019229775e+18,-0.197152204815,-0.22899384471099998,-0.11587495114249999
1.717597019429775e+18,-0.0120282894905,-0.08271476821595,-0.04344976688475001
1.717597019629775e+18,0.103419750932,-0.033076816132,-0.022856237017750004
1.717597019829775e+18,0.21738855205549998,0.1027448365545,0.023683792538450005
1.717597020029775e+18,0.19158415068100001,0.09910991936650002,0.019326281710300004
1.717597020229775e+18,-0.1770506157945,-0.11711145778775,0.0082384043835
1.717597020429775e+18,-0.127986034841,0.08898610509399998,0.013421360064399998
1.717597020629775e+18,-0.11326806918499999,0.0330556141007,-0.017061407200600003
1.717597020829775e+18,-0.12190559934095,-0.225569708649,-0.0804905089545
1.717597021029775e+18,-0.053925803559266,-0.256588749585,-0.10649420858630002
1.717597021229775e+18,0.0299359812169,0.1133940226305,-0.023219113680075003
1.717597021429775e+18,0.10279451568655,0.20135048665500005,0.05539597594150001
1.717597021629775e+18,0.07232156077159999,0.0783104699145,-0.002404268039599998
1.717597021829775e+18,-0.17902211062600001,-0.021004902054699993,0.12301433727710001
1.717597022029775e+18,-0.046209365501455005,0.0613133408098,0.06660001614474999
1.717597022229775e+18,-0.07603996188539999,-0.153643583229,-0.1325597831965
1.717597022429775e+18,-0.11617351928599999,-0.12006384050550001,-0.08855072874799999
1.717597022629775e+18,-0.034810263148556495,-0.059064728486500004,-0.0047808966601
1.717597022829775e+18,-0.03527424505285,0.042268419543,0.08897220152405001
1.717597023029775e+18,-0.22193019315800006,0.0333212523762,0.06560735798200001
1.717597023229775e+18,-0.544828443235,-0.0231235299222,0.182181436562
1.717597023429775e+18,-0.112805050795,0.21857152077900005,0.121467646209
1.717597023629775e+18,-0.031657471485185,-0.0046949045964499985,0.02044268824437
1.717597023829775e+18,0.0692530528683,0.013684605550600002,0.00711048737945
1.717597024029775e+18,0.033175908771949994,-0.011309704652199997,-0.011104870312099998
1.717597024229775e+18,-0.0008953649545950005,0.03551773268353,-0.004513366846974999
1.717597024429775e+18,-0.049433906934999994,0.0126408811666,0.022061957698350003
1.717597024629775e+18,-0.041671228688500005,-0.02392677096595,-0.01379874444095
1.717597024829775e+18,-0.059994726255000005,0.004710064012494999,0.011578969401665
1.717597025029775e+18,-0.05966860949999999,-0.00880082229816,0.0032432996667925
1.717597025229775e+18,-0.023326285438635,0.00804653729504,0.00740057127585
1.717597025429775e+18,0.013789469424119998,0.00294692682792,0.000272135587875
1.717597025629775e+18,0.024899607058499997,0.01622482418245,0.007124961807700001
1.717597025829775e+18,0.02511186339,0.014776047364924999,0.006943281553499998
1.717597026029775e+18,0.025473354090526316,0.013674546180894736,0.006446342682842106
1.717597026229775e+18,0.025248919335,0.017346003627539998,0.0070368450606000015
1.717597026429775e+18,0.020985131896,0.00633293809337,0.003626797965255
1.717597026629775e+18,-0.003483962442277,0.003729924914794999,0.00403021518145
1.717597026829775e+18,-0.0228328002167,-0.017284906562750002,-0.00404254762685
1.717597027029775e+18,-0.02593612317,-0.011386605166499999,-0.0021987637737530003
1.717597027229775e+18,-0.025633009151500002,-0.009588744119049999,-0.00043507694506270003
1.717597027429775e+18,-0.0180083392195,-0.0100210001933,-0.0028819228290039994
1.717597027629775e+18,-0.015862749283,-0.00485596016495,-0.0010747258435
1.717597027829775e+18,-0.019619844948499998,-0.008159535424455,-0.0017402628319004997
1.717597028029775e+18,-0.014482771466900001,-0.00485433035085,-0.00041451775461
1.717597028229775e+18,-0.01204704546705,0.001270946866061,0.00260240985075
1.717597028429775e+18,-0.0054810460893845,-0.0016505256820000002,-0.00039505318277600004
1.717597028629775e+18,0.006319455662999999,0.002438844275,0.001624929613955
1.717597028829775e+18,0.015389115829449998,0.008164662867449999,0.00429121772755
1.717597029029775e+18,0.021820479864,0.0102663847146,0.0039651442784
1.717597029229775e+18,0.020543689466500002,0.0098929392296,0.0028917564662250005
1.717597029429775e+18,0.023302837274500002,0.012716788241200002,0.00517346535345
1.717597029629775e+18,0.021805992956,0.01285065808215,0.004734433011705
1.717597029829775e+18,0.015784396511,0.0050191276996235,0.00172466293453
1.717597030029775e+18,-0.008429492498006499,-0.0044776866561099995,0.0007151364464379999
1.717597030229775e+18,-0.024623125885499995,-0.0118617798204,-0.0011162408395395
1.717597030429775e+18,-0.0223093910145,-0.012179945281235002,-0.0029443119883600004
1.717597030629775e+18,-0.017947053397,-0.008335548109135,-0.002639238990440275
1.717597030829775e+18,-0.014960396895000002,-0.005800543306310001,-0.0013824165333
1.717597031029775e+18,-0.019714176282,-0.005915517592873999,0.00025293056388
1.717597031229775e+18,-0.0160467893349,-0.007957749010075,-0.0020599424606500003
1.717597031429775e+18,-0.004092088237,0.0001845382619495,0.00051529258492
1.717597031629775e+18,-0.004917548957750001,-0.001246294175525,5.95558662854997e-06
1.717597031829775e+18,0.00475066765229,0.0005533470598999999,0.00045199672455999986
1.717597032029775e+18,0.013534557284950002,0.007926792454000003,0.004129106306900001
1.717597032229775e+18,0.0229550777,0.0118395704303,0.0033381685499000004
1.717597032429775e+18,0.021166977053499996,0.011367366125250002,0.004284546943335
1.717597032629775e+18,0.021389134693499998,0.01079078416795,0.0033638190595000005
1.717597032829775e+18,0.012047125563446498,0.015061312773900002,0.006391950429036
1.717597033029775e+18,0.005242195678880001,-0.00603301434228,-0.010436777513905001
1.717597033229775e+18,0.00401260721214,0.0046263202436,-0.011003039859125
1.717597033429775e+18,-0.0154379245827,-0.004141750466749999,-0.0023196133192899997
1.717597033629775e+18,0.003407794748920001,-0.024467082321550003,-0.019127027946104998
1.717597033829775e+18,-0.018914524175049997,-0.021224973187449998,0.01269124953463
1.717597034029775e+18,-0.027149735415049996,0.003868753643685,0.006244343088649999
1.717597034229775e+18,-0.048620888660995,-0.01585490421945,-0.0004748717650499999
1.717597034429775e+18,0.0055481171119565,0.0025633878541095004,0.0068126538766745005
1.717597034629775e+18,0.018519112095000005,0.008791903511245,0.00399833106187
1.717597034829775e+18,0.026686413399999998,0.0139900873648,0.005262040870699999
1.717597035029775e+18,0.029230591282499996,0.0134655769804,0.00399840841987
1.717597035229775e+18,0.027155667052631574,0.008486248589373684,0.0023969874813789473
1.717597035429775e+18,-0.0023472776629100004,0.0007169033573860003,0.00443195175608
1.717597035629775e+18,-0.020601062964854998,-0.0088590747325025,0.0053722162038150004
1.717597035829775e+18,-0.015438256178000001,-0.012405744811300001,-0.004849540314031
1.717597036029775e+18,-0.0177422147235,-0.0057899007568745,-0.00031342956940949996
1.717597036229775e+18,-0.020284806937500004,-0.00713891803745,-0.0007708282441950001
1.717597036429775e+18,-0.022660579719,-0.010784401209100002,-0.002405701717375
1.717597036629775e+18,-0.019085349842,-0.0032594947726624995,0.0017933556810094998
1.717597036829775e+18,-0.013531882781500002,-0.004586287157134999,0.00020276608407
1.717597037029775e+18,0.0023381302368999995,0.0025407548177800005,0.00041170590561500004
1.717597037229775e+18,0.019998570905000002,0.005459252907725,0.00136082567043
1.717597037429775e+18,0.026152868848,0.014061999647499998,0.004201732203300001
1.717597037629775e+18,0.029110990278000005,0.010694862785250002,0.00298805052872
1.717597037829775e+18,0.027150147223,0.0091721818674,0.0024251163821715
1.717597038029775e+18,0.018640687315799997,0.01212854591385,0.0055320463609
1.717597038229775e+18,-0.0162718493243,-0.006917609110849999,-0.0006686285487545
1.717597038429775e+18,-0.0254847750065,-0.014815582615399999,-0.004866082081739999
1.717597038629775e+18,-0.023206935637,-0.007680858112800002,-0.000261441396990947
1.717597038829775e+18,-0.022107306588,-0.007334920950750001,-0.0006624269647949998
1.717597039029775e+18,-0.021826725035,-0.007937352010234999,-0.0012577229878645
1.717597039229775e+18,-0.016151048102500003,-0.007129664508754999,-0.00146670044639
1.717597039429775e+18,-0.008622018085,-0.003568110556765,-0.000765741360385
1.717597039629775e+18,-0.0010322233076949996,0.0009885497506950001,5.737851600499985e-05
1.717597039829775e+18,0.0146866881285,0.0053583301143315006,0.00219341762135
1.717597040029775e+18,0.0222621155905,0.00948671414525,0.003697538585385
1.717597040229775e+18,0.022187803267500004,0.01131115104125,0.0038188992650000004
1.717597040429775e+18,0.022738400473500002,0.00715008112603,0.00069210397773
1.717597040629775e+18,0.023739641718000002,0.0133306877921,0.0036737249000500004
1.717597040829775e+18,0.020269047655000004,0.007349850505295001,0.0028573537711500006
1.717597041029775e+18,0.005195178359755,-0.0012853899970350002,-0.0005170425866899999
1.717597041229775e+18,-0.014354931167999999,-0.004695069597555,0.0007496545672964999
1.717597041429775e+18,-0.019547798344499996,-0.011368938675599998,-0.0030363559839390003
1.717597041629775e+18,-0.023237158265,-0.01049255395755,-0.002512411330765
1.717597041829775e+18,-0.021105867812000002,-0.011838471726899998,-0.0034866288421999993
1.717597042029775e+18,-0.020309421047000002,-0.0043929041363650004,0.0015112865017760002
1.717597042229775e+18,-0.018493515905150002,-0.004544732021095001,-0.0001707584015335
1.717597042429775e+18,-0.01161249598985,-0.0063923832319849995,-0.0017403391422350003
1.717597042629775e+18,0.006768041314049999,0.0044800652542,0.002152972179465
1.717597042829775e+18,0.017776118499,0.008103084960200001,0.0022221218910449996
1.717597043029775e+18,0.018770315405250003,0.01027659748175,0.0036440176540049997
1.717597043229775e+18,0.0239769876935,0.009002761089649999,0.0027451117756100004
1.717597043429775e+18,0.026412266678,0.013416460528349999,0.003765290090804999
1.717597043629775e+18,0.020843014494,0.007339116989064999,0.0017629918758849997
1.717597043829775e+18,0.009649714478809999,0.0022278962830850004,0.001067957142465
1.717597044029775e+18,-0.015445273043199998,-0.004169124166682,0.0024251589318949997
1.717597044229775e+18,-0.0151067099998,-0.00837684585735,-0.0028404279146649995
1.717597044429775e+18,-0.015132507064473683,-0.010837089662526316,-0.004376973932326316
1.717597044629775e+18,-0.011502466106899997,-0.0031534473352790005,0.00148189304163
1.717597044829775e+18,-0.016094319010000004,-0.007568319188324998,-0.0018935555941899998
1.717597045029775e+18,-0.021343428502999997,-0.0076430457059149986,-0.000732657010622
1.717597045229775e+18,-0.0183541413405,-0.0067615063629150015,-0.0005588019150119999
1.717597045429775e+18,-0.00919587195415,-0.002557228808285,-0.00046491912788500006
1.717597045629775e+18,-0.0046681030188000005,-0.0008650899457400002,-0.00042796379419900003
1.717597045829775e+18,0.008601871877668001,0.001395870710305,8.395576149000004e-05
1.717597046029775e+18,0.012982572661599998,0.008640943199599998,0.0030235872719850004
1.717597046229775e+18,0.0181953858595,0.00856807173675,0.002343628462275
1.717597046429775e+18,0.019113598530999996,0.0093527199766,0.0029554122127049996
1.717597046629775e+18,0.021069651749,0.007810980326765001,0.0014380516368000002
1.717597046829775e+18,0.021939424798000002,0.011788748903499999,0.0041930395527899995
1.717597047029775e+18,0.018271099495999997,0.00614981488317,0.0014553973684079998
1.717597047229775e+18,0.012620277261385,0.000645764998685,4.093997406000021e-05
1.717597047429775e+18,-0.00984980503515,-0.0017133136103999996,0.0017975979716599998
1.717597047629775e+18,-0.025875546876000004,-0.012215442372899999,-0.0017407935113350006
1.717597047829775e+18,-0.024184064939499997,-0.0157560851659,-0.0044043781002745
1.717597048029775e+18,-0.0225346313795,-0.007777158753050001,-0.0006917041725800001
1.717597048229775e+18,-0.019980659988,-0.0063693440520999995,-6.281024541699993e-05
1.717597048429775e+18,-0.018469381612,-0.005914174776675,-0.00037922589110299994
1.717597048629775e+18,-0.010535910726145,-0.0051822384523049995,-0.001542351278381
1.717597048829775e+18,0.0142365756909,0.0082935642684,0.0029974588542
1.717597049029775e+18,0.021505499072,0.01020906162445,0.0028773377300500003
1.717597049229775e+18,0.023072492983500004,0.009989087725758,0.002771089400675
1.717597049429775e+18,0.0287618476895,0.013428434497,0.003694799996425
1.717597049629775e+18,0.0227067423055,0.010848270310700002,0.00369372530835
1.717597049829775e+18,0.019211253244999997,0.008354639948975,0.0028648208243799997
1.717597050029775e+18,0.013889011624300002,0.004235810623440001,0.0019452258944609997
1.717597050229775e+18,-0.0036100841710999996,-0.00040138484918500006,0.0011237227125550002
1.717597050429775e+18,-0.016555376444750004,-0.006860446394350001,-0.000230964354705
1.717597050629775e+18,-0.024895296339,-0.017196483585,-0.00481860679572
1.717597050829775e+18,-0.0234629916035,-0.00938570423725315,-0.0008836488589099998
1.717597051029775e+18,-0.021060211025500004,-0.009169818134849999,-0.0019651013193384996
1.717597051229775e+18,-0.027043504919,-0.007654010155349998,0.0009692478110600001
1.717597051429775e+18,-0.01690762378285,-0.007056475291094999,-0.00185899051145
1.717597051629775e+18,-0.0074025038745,-0.0010181140562099998,0.00039046740859999995
1.717597051829775e+18,-0.0031954578822136503,-0.0008149587432804998,-0.0004005006282589999
1.717597052029775e+18,0.01061329618105,0.0032227853080350004,0.0020847220672999996
1.717597052229775e+18,0.0143875324173,0.00942567996705,0.0046676754951000005
1.717597052429775e+18,0.021314851008,0.008420958742400002,0.0025850234319699994
1.717597052629775e+18,0.021948788501499998,0.0106306869186,0.003753762470999999
1.717597052829775e+18,0.02224108167,0.007864803402045,0.0017296116798800002
1.717597053029775e+18,0.023355012479,0.0127827136313,0.004177020641459999
1.717597053229775e+18,0.017605512495499995,0.005266660708295,0.001145803509305
1.717597053429775e+18,-0.006134846689500001,-0.004826872009142105,-7.39757853836843e-05
1.717597053629775e+18,-0.019265108462999996,-0.01002868707305,-0.00181935038413
1.717597053829775e+18,-0.021395105031,-0.00814288377245,-0.00195280656916
1.717597054029775e+18,-0.022847627942,-0.01048312126695,-0.00205517383292
1.717597054229775e+18,-0.020340412761499997,-0.010088527831250001,-0.0025178550277195
1.717597054429775e+18,-0.019385608985000004,-0.00441942242925,0.00196289580781
1.717597054629775e+18,-0.0123178139093,-0.0052067932205999996,-0.00116243070229
1.717597054829775e+18,-0.008215372566500002,-0.002528138388705,-0.0001661973889250001
1.717597055029775e+18,0.012164784991399998,0.0043706657132,0.002308024966591
1.717597055229775e+18,0.0187809044035,0.009967153006850001,0.003522462898465
1.717597055429775e+18,0.0248615165235,0.01272834409055,0.0033773981384
1.717597055629775e+18,0.027463005483000003,0.00967049499155,0.00234148717721
1.717597055829775e+18,0.022742798832,0.01090524594835,0.0029711369308899997
1.717597056029775e+18,0.013932957732990001,0.006134511571209999,0.0029459264943950004
1.717597056229775e+18,-0.012480316078049999,-0.005075198400635,-0.00015296273635999994
1.717597056429775e+18,-0.0177663643835,-0.011337056103700002,-0.0033935572951800004
1.717597056629775e+18,-0.017325735931,-0.007934674248,-0.00097443420674
1.717597056829775e+18,-0.017318433103499998,-0.007614817586549999,-0.002014279691395
1.717597057029775e+18,-0.020416112477000002,-0.011913778144499999,-0.00284715280871
1.717597057229775e+18,-0.017311652610000002,-0.004420901718542999,0.000658002949755
1.717597057429775e+18,-0.009132739784650002,-0.00314286816864,0.0005693717742299999
1.717597057629775e+18,0.0007157144838049999,0.0019838350127050004,0.0006081682746250001
1.717597057829775e+18,0.0131281040145,0.005210752994544999,0.0024781193699849997
1.717597058029775e+18,0.019432093669,0.009955007140999998,0.003353832755285
1.717597058229775e+18,0.021515467762,0.01134953843425,0.00289978279026
1.717597058429775e+18,0.022151741851,0.0076047672656999995,0.000778309244215
1.717597058629775e+18,0.019972347235500003,0.0105458335705,0.00373049931361
1.717597058829775e+18,-0.00502305914347,-0.0020683401497428,0.0007008836253000001
1.717597059029775e+18,-0.016633584909,-0.010132907365300002,-0.0024166115095000003
1.717597059229775e+18,-0.0173191974405,-0.009315717592515,-0.0008405037929199997
1.717597059429775e+18,-0.021130899432500003,-0.0081220969554,-0.00039260188354199994
1.717597059629775e+18,-0.019313367363000003,-0.00847908286395,-0.0017721543787079998
1.717597059829775e+18,-0.015035254193650002,-0.008249467565079998,-0.002184028713835
1.717597060029775e+18,-0.0054295301087900006,-0.000829566828875,0.00031619148791
1.717597060229775e+18,0.00415857395845,0.0015145334414733498,1.4864956006500006e-05
1.717597060429775e+18,0.013109704386900001,0.00771225335745,0.00376584744076
1.717597060629775e+18,0.0220477659265,0.008806693250945,0.002742064418205
1.717597060829775e+18,0.02286825059,0.012791397515099997,0.004949442134315
1.717597061029775e+18,0.019081881503999996,0.010374218831299999,0.0028908220935349995
1.717597061229775e+18,0.021631533279999997,0.00598685026057,0.001784361968835
1.717597061429775e+18,0.020494081266,0.011189943947899999,0.004082609526881999
1.717597061629775e+18,-0.0006080504159999999,-0.0004693253371549997,0.0009599810466700001
1.717597061829775e+18,-0.018844906519849998,-0.009692035998555,-0.0018961094553299998
1.717597062029775e+18,-0.019393230695,-0.0122845767075,-0.003095920919415
1.717597062229775e+18,-0.0229204983455,-0.0097010010394,-0.001614074676785
1.717597062429775e+18,-0.025369827914499998,-0.00986303361175,-0.001878267934112
1.717597062629775e+18,-0.023213290953157894,-0.00962263656942105,-0.001993919710452632
1.717597062829775e+18,-0.010106813756949998,-0.004286244989345999,-0.0009780271212265
1.717597063029775e+18,-0.00394706900705,-0.003202942421433,-0.0016884848939499996
1.717597063229775e+18,0.007763613038335,0.00432505126799,0.00042100779310000005
1.717597063429775e+18,0.015167067223350001,0.005460755265079999,0.0017647029250099997
1.717597063629775e+18,0.0195995570155,0.011914077354750002,0.004569166188565
1.717597063829775e+18,0.023464443534,0.0118113527541,0.0033478011726
1.717597064029775e+18,0.020314514636999993,0.0103172543577,0.003227693156669
1.717597064229775e+18,0.019883161596999994,0.0074824545941499995,0.0020149012212385
1.717597064429775e+18,0.018729428388999998,0.008482111663750002,0.003276764904
1.717597064629775e+18,-0.00013446192004999986,-0.00029601476849200006,0.0006229241377844999
1.717597064829775e+18,-0.016371508220999996,-0.009353737999300001,-0.0021419795346
1.717597065029775e+18,-0.017882449459500002,-0.00926479967325,-0.0014494087081615003
1.717597065229775e+18,-0.020258722828000002,-0.0076959628621000005,-0.0021725125378149997
1.717597065429775e+18,-0.022328641731,-0.009097276499945,-0.0013720605521300002
1.717597065629775e+18,-0.017147786031500002,-0.008272330649280001,-0.002321151644045
1.717597065829775e+18,-0.016691237408400002,-0.00408588370775,0.0006220016278849999
1.717597066029775e+18,-0.00444540515342,-0.000943049584735,-0.0002954576397535
1.717597066229775e+18,-0.0027275425265250006,0.0017653757122,0.000963883660805
1.717597066429775e+18,0.0090350940357,0.00192519180714,0.00125700440259
1.717597066629775e+18,0.016355994670000002,0.0070903728249,0.0027972945827099997
1.717597066829775e+18,0.018558941129499996,0.009566044528299998,0.00386771711047
1.717597067029775e+18,0.0201579893015,0.00647254397585,0.001475523470435
1.717597067229775e+18,0.020615887827,0.01212965096295,0.00399585636345
1.717597067429775e+18,0.017333970219000003,0.008274994162149999,0.0025442779064149997
1.717597067629775e+18,0.011286923033424,0.0014222894504114993,0.0010196507907715003
1.717597067829775e+18,-0.012530211732855002,-0.0053507650504500005,0.00036062794977450007
1.717597068029775e+18,-0.0168745806905,-0.0089307504475,-0.002295660600128
1.717597068229775e+18,-0.020667732692500003,-0.0085879770571,-0.0012782257981950001
1.717597068429775e+18,-0.016164150927,-0.01232672091575,-0.0040805154247
1.717597068629775e+18,-0.0184997564185,-0.0045113950736,0.0007277418742350001
1.717597068829775e+18,-0.018739698641000002,-0.00501467650765,0.000551661674355
1.717597069029775e+18,-0.012734454987550001,-0.0043773805837200004,0.00011232827093000005
1.717597069229775e+18,-0.0024688146892400003,-0.0011873535932000003,-0.00022280793636499994
1.717597069429775e+18,0.015547575662000001,0.00795853815465,0.0029650769081000002
1.717597069629775e+18,0.019497281686000005,0.0099457158947,0.0025837805005799997
1.717597069829775e+18,0.022800205647999998,0.009912083926065,0.0026835414463249998
1.717597070029775e+18,0.02479914669,0.011703971866350001,0.00328752623174
1.717597070229775e+18,0.0202375533055,0.00921580917295,0.0025353785836300003
1.717597070429775e+18,0.014180011581350002,0.00693866204245,0.0028460974571549997
1.717597070629775e+18,-0.002261690841365,-0.003450540418445,-0.0012094301287800002
1.717597070829775e+18,-0.016853824537,-0.0071171738439,-0.000582302955905
1.717597071029775e+18,-0.0169109568,-0.009139093058599999,-0.002434441166350001
1.717597071229775e+18,-0.021383816282500002,-0.0101700223522,-0.0012194735922450002
1.717597071429775e+18,-0.019824432675000003,-0.009730794723449999,-0.0017287912778389998
1.717597071629775e+18,-0.01588119296894737,-0.005293141450147368,-0.0004820240488384211
1.717597071829775e+18,-0.010736768251149999,-0.003541435248935,-0.00036971871739349986
1.717597072029775e+18,-0.00892301846735,-0.005755656340455,-0.0014008586526849998
1.717597072229775e+18,0.0034018181960350003,0.0030713727406800006,0.0015542258974199999
1.717597072429775e+18,0.013141241016299997,0.005936580628414999,0.00276031465043
1.717597072629775e+18,0.017700452078999996,0.008086962013949999,0.0038599505206
1.717597072829775e+18,0.0214856864895,0.00803598146835,0.0025508910417450003
1.717597073029775e+18,0.0217329370785,0.012286210106099999,0.0037465639994950007
1.717597073229775e+18,0.020628733793000002,0.009383771172550001,0.0033247600543099996
1.717597073429775e+18,0.014636631262700001,0.0033293515326849993,0.0009111670311594998
1.717597073629775e+18,-0.005444071908700001,-0.0005039619281362501,0.00206486906383
1.717597073829775e+18,-0.015212249988999995,-0.008653487183320003,-0.0023667272296750003
1.717597074029775e+18,-0.022394932154000003,-0.0094509064217,-0.0014231928041399998
1.717597074229775e+18,-0.0190282573005,-0.01157087017705,-0.0036792233585499997
1.717597074429775e+18,-0.0184206796805,-0.005211088643300001,0.00017839489740049995
1.717597074629775e+18,-0.0164839270975,-0.0065813430118,-0.001074271439521
1.717597074829775e+18,-0.01271435706895,-0.004043907125255,-0.00027878456750235004
1.717597075029775e+18,-0.0066661986056500006,-0.00362649539588,-0.00085287629627
1.717597075229775e+18,0.00740398555063,0.003596888307961,0.0016323517425600002
1.717597075429775e+18,0.0152889715045,0.0067290322155,0.00283504506796
1.717597075629775e+18,0.016555030226000002,0.005856778229265,0.00234409574185
1.717597075829775e+18,0.0182389762255,0.01124574602565,0.003962446865600001
1.717597076029775e+18,0.019114747551,0.009491809410750002,0.00268578343092
1.717597076229775e+18,0.015307799354000002,0.007709364127549999,0.003040410939245
1.717597076429775e+18,0.012582424189499999,0.003928102657689999,0.0011378428665590001
1.717597076629775e+18,-0.006264104647325,-0.000672645453605,0.0019041553139450002
1.717597076829775e+18,-0.0232276665975,-0.0104911600236,-0.00268576919331
1.717597077029775e+18,-0.0233037455,-0.01392511832585,-0.004156783991505
1.717597077229775e+18,-0.018818340915499998,-0.006185603269715,0.00048382186758000046
1.717597077429775e+18,-0.015024292096000003,-0.005925686675647,-0.0010589556765
1.717597077629775e+18,-0.009848319459549998,-0.003334975649980001,-0.0012990026848420002
1.717597077829775e+18,-0.0075412860375,-0.00477672862449,-0.00141031254327
1.717597078029775e+18,-0.00199870554499,0.00164280015163,0.0016187601373449999
1.717597078229775e+18,0.011888361417699998,0.004213577148045,0.0018974353676885
1.717597078429775e+18,0.015380671434000001,0.0072868967310550006,0.00298645137814
1.717597078629775e+18,0.018281109911,0.007819731702704998,0.002637418790175
1.717597078829775e+18,0.0215309537015,0.0121454164378,0.0042808943196
1.717597079029775e+18,0.020570648414,0.00992673796195,0.002822645555673
1.717597079229775e+18,0.0191822209395,0.0055470364109595,0.0012614757287745
1.717597079429775e+18,0.007622563489549999,0.0050326129422,0.003168148070042
1.717597079629775e+18,-0.013481715879599999,-0.007051139185249999,-0.0014690255164350001
1.717597079829775e+18,-0.017571448349499995,-0.0087620536791,-0.001256117236362
1.717597080029775e+18,-0.016273877258000002,-0.01082356569825,-0.0026256431709400004
1.717597080229775e+18,-0.020555596984,-0.008128621149399998,0.00013085084498500008
1.717597080429775e+18,-0.019013358513499997,-0.0066032422705499996,0.00013189214508000003
1.717597080629775e+18,-0.014388160152250001,-0.006958703184749999,-0.0002123681596249999
1.717597080829775e+18,0.004717341870042105,0.0039353113143368425,0.0008554954180052633
1.717597081029775e+18,0.015309829101950001,0.007071799924593,0.0018161791843070002
1.717597081229775e+18,0.069844788685,0.08499635923599999,0.012401680229651001
1.717597081429775e+18,0.071502206289,0.056044871614835,0.0107106757583
1.717597081629775e+18,0.0528472585605,0.02176151243015,-0.018633265211265
1.717597081829775e+18,0.036355883162,-0.0003688010325299997,0.007555555598399999
1.717597082029775e+18,0.0008059143091500003,-0.0351161064123,-0.025993215396999995
1.717597082229775e+18,-0.01758651887135,-0.0007658606405499993,-0.007512075174599999
1.717597082429775e+18,0.09833342665799999,0.0059822097164500005,-0.0482448434686
1.717597082629775e+18,0.06123336176039999,-0.06870303474775,-0.05552645176700001
1.717597082829775e+18,0.054420654011000005,-0.0250971286774125,-0.029256075177999996
1.717597083029775e+18,0.1952030714735,-0.025104420705200005,-0.055292722807650005
1.717597083229775e+18,0.25400518626499996,-0.154795782812,-0.102593686243
1.717597083429775e+18,0.31858620644,-0.4324681818499999,-0.20993907562800002
1.717597083629775e+18,0.10603247331184999,-0.08462524178615,-0.08977664294829998
1.717597083829775e+18,0.0193518180799,0.28762650713500004,0.1147617474215
1.717597084029775e+18,0.1979420635885,-0.030765604616599995,-0.09106139189329998
1.717597084229775e+18,-0.181304947598,-0.014444944445999993,0.22475163503955004
1.717597084429775e+18,-0.06259086399519999,0.4390679248618999,0.24986210707700002
1.717597084629775e+18,0.14262330774510001,-0.17494001546599997,-0.08523279279802999
1.717597084829775e+18,0.134248932821,0.279580437944,0.11330840806664999
1.717597085029775e+18,0.06575522606359999,0.07250133328635,0.01916393472315
1.717597085229775e+18,-0.06554634712585002,0.06654792462717499,0.008919082535249999
1.717597085429775e+18,-0.0510938505995,-0.1341835136368,-0.0874097439525
1.717597085629775e+18,-0.0730657245652,-0.1329469678085,-0.0416713948113
1.717597085829775e+18,0.009379428621999999,-0.025240330770450004,-0.05356442798355
1.717597086029775e+18,0.008268229757699998,0.07418955109525001,0.08072536504715
1.717597086229775e+18,0.180336014921,0.149680459875,-0.005116545676100003
1.717597086429775e+18,0.089648062931,-0.0007607092681250038,0.1002175995155
1.717597086629775e+18,-0.138558917960995,-0.11738513712810002,-0.0358500377502
1.717597086829775e+18,-0.16566218064000002,0.125209029002,0.05826286612666
1.717597087029775e+18,-0.15077733285199998,0.07857630909129999,-0.034874493954015
1.717597087229775e+18,-0.10063601480225,0.025303385571350007,-0.004354595670649998
1.717597087429775e+18,0.0501740898216,-0.07664742176395001,-0.0693614391978
1.717597087629775e+18,-0.03589375706280001,-0.177810958954,-0.12125255706986501
1.717597087829775e+18,0.17987276055250004,0.07118818349969999,-0.005941490315850009
1.717597088029775e+18,-0.0761699099015,-0.052593890388,0.015249864478499991
1.717597088229775e+18,-0.10301678302049999,0.06776056780985,0.0813812731426
1.717597088429775e+18,-0.14234688618099997,-0.147915423198,-0.048407712021000006
1.717597088629775e+18,-0.1676456050935,-0.12760200863959997,-0.0503853664682
1.717597088829775e+18,-0.0050701117162,-0.05008662880065001,0.012816714981150001
1.717597089029775e+18,0.125362763833,0.024703088123,0.098682201747
1.717597089229775e+18,0.19809820837850003,0.0226292449945,-0.025710804992839998
1.717597089429775e+18,0.06863005869655,0.08444367153499999,-0.02975331654265
1.717597089629775e+18,-0.12154892263005002,-0.027267466487499996,0.0537915178105
1.717597089829775e+18,-0.16789008834473684,0.26523582597894735,0.08944614299684212
1.717597090029775e+18,-0.177080012117,-0.055300829188449994,-0.0443027036098
1.717597090229775e+18,-0.1128073788215,-0.098521893009,-0.012682935223899997
1.717597090429775e+18,0.050721571498999994,-0.028253942546500006,-0.018450228454490004
1.717597090629775e+18,0.118728739398,0.057285663113600005,-0.04092643791850001
1.717597090829775e+18,0.22535051517600002,0.044215456323665005,0.001051965891479
1.717597091029775e+18,-0.04294343019832499,-0.042841536321000004,0.038006076788099995
1.717597091229775e+18,-0.08724543084400001,0.0012970487831499978,0.0514336029523
1.717597091429775e+18,-0.16629481502100002,-0.014511778326449998,0.011654415355149998
1.717597091629775e+18,-0.13630415987724998,-0.174243591731,-0.08097057305149999
1.717597091829775e+18,-0.0106824018536,0.022552151179910003,-0.02611096727105
1.717597092029775e+18,0.1575195858258,-0.002194889158095001,-0.10570814778399999
1.717597092229775e+18,0.248732455815,0.0012476850798500013,-0.0560453951365
1.717597092429775e+18,0.0809660824941,-0.2120068550959,-0.11403084695249999
1.717597092629775e+18,0.03367560021585,0.24026147993499997,0.22049264124149998
1.717597092829775e+18,-0.07944055313339998,0.03181831079865499,0.10153752770895001
1.717597093029775e+18,-0.14587027942324998,-0.11303431885399999,-0.058896603342549994
1.717597093229775e+18,-0.01321218565916,-0.121799632349,-0.025813489278149998
1.717597093429775e+18,-0.424089638175,-0.2690911078835,-0.04038713026964999
1.717597093629775e+18,-0.40121727737800006,0.43503633518500007,0.4509626200169999
1.717597093829775e+18,0.005594556076500001,-0.001465125425500004,0.009089237733250004
1.717597094029775e+18,0.02247127245919999,0.037517823606499995,-0.0391456236367
1.717597094229775e+18,-0.1650015063595,-0.003540077831850002,0.0103593727574305
1.717597094429775e+18,-0.018219377239995,0.02695467178613,0.0333041758278
1.717597094629775e+18,0.011551610438290002,0.008266838220840001,0.0014004960656400002
1.717597094829775e+18,0.0356411457065,0.016932486986797498,0.00433497359031
1.717597095029775e+18,0.0391117271985,0.010114000609349999,0.003065098309654999
1.717597095229775e+18,0.032682885322,0.013441036013999999,0.012766561936600002
1.717597095429775e+18,-0.02274530807063,-0.006747206136690001,0.00427206107375
1.717597095629775e+18,-0.071769986861,-0.025410978122599997,-0.008712469902420002
1.717597095829775e+18,-0.054782442933999996,-0.006589074677425,0.005278063076815
1.717597096029775e+18,-0.026108507904,-0.012052267487449999,-0.006422581732685001
1.717597096229775e+18,-0.007388097629699999,0.004244252119555,0.0026304404716449995
1.717597096429775e+18,-0.009194910317149998,-0.00211308242864,-0.0003279420082049999
1.717597096629775e+18,0.005399991071574999,0.0003765691768999999,0.001385683926895
1.717597096829775e+18,0.0207281552264,0.0124431280421,0.004876365407699999
1.717597097029775e+18,0.036945791356499995,0.01444853491264,0.0040406768441200005
1.717597097229775e+18,0.0449638232585,0.0095394598782,0.00477038882669
1.717597097429775e+18,0.041313504241,0.01249061012785,0.0024138724313850003
1.717597097629775e+18,0.02967410190025,-0.0019704423973099998,-2.3472996114999718e-05
1.717597097829775e+18,-0.0271303636717,-0.00674338126552,-0.00095618695493
1.717597098029775e+18,-0.030568542145499998,-0.00938639286919,-0.001820813003075
1.717597098229775e+18,-0.029265273082499998,-0.009364502498025002,-0.0010513487620690998
1.717597098429775e+18,-0.023972475901499996,-0.00364163430641,0.0005657997680382002
1.717597098629775e+18,-0.020550982887,-0.0087231241633,-0.0017351213260965001
1.717597098829775e+18,-0.016889013300842103,0.0023374358547421053,0.0025924595294421053
1.717597099029775e+18,-0.008981637423750001,2.4098163754999925e-05,-0.0012387854046619997
1.717597099229775e+18,-0.00547362688194,-0.0027351989061149998,-0.0005894483998434999
1.717597099429775e+18,0.006093388912384001,0.0011628021191600001,0.0008775336202150001
1.717597099629775e+18,0.0125993097665,0.00981747782775,0.0034292386147750003
1.717597099829775e+18,0.018436685483999998,0.008579925516300001,0.00268732439731
1.717597100029775e+18,0.025193556026000003,0.0072592082668,0.00043325379944499987
1.717597100229775e+18,0.028574681747499997,0.00943804034045,0.003437596478075
1.717597100429775e+18,0.035872031842999995,0.007700785610200001,0.0007498424499499999
1.717597100629775e+18,0.015080978558449998,0.00040889079667999977,7.799790480000004e-05
1.717597100829775e+18,-0.0339984619985,-0.0174971652226,-0.005272270250000001
1.717597101029775e+18,-0.032121415249,-0.009756679280899998,-0.0020143216359674995
1.717597101229775e+18,-0.029174354580500005,-0.00899431989475,-0.0009262702545200001
1.717597101429775e+18,-0.024475395493000002,-0.005160040035899999,0.000621710158895
1.717597101629775e+18,-0.0193265556116,-0.006942132074470001,-0.0016265400220139997
1.717597101829775e+18,-0.00546712354989,0.00288109178073685,0.0017023549182210002
1.717597102029775e+18,5.7095754995000046e-05,-0.0004887259563950001,-0.0020215771394705003
1.717597102229775e+18,0.011864969739599999,0.0037196713731515,0.0017740866867949998
1.717597102429775e+18,0.020341276843999997,0.01106460287635,0.0061259773908
1.717597102629775e+18,0.02900280226,0.010852390480599999,0.00278141134192
1.717597102829775e+18,0.026908188499999996,0.0105335043276,0.0028562171501095
1.717597103029775e+18,0.024643538240000002,0.005215317872539999,0.0014784395577700001
1.717597103229775e+18,0.01860161134915,0.003807699278697501,0.0016157200792549999
1.717597103429775e+18,-0.022094358643695,-0.008942582621400002,-0.00088506379399
1.717597103629775e+18,-0.028277566004999997,-0.01038372551575,-0.001455565972715
1.717597103829775e+18,-0.029140799306500008,-0.011516118282700001,-0.0027489117346599997
1.717597104029775e+18,-0.0158629549658,-0.0005585325298180001,0.00164404688398
1.717597104229775e+18,-0.017176094650650002,-0.006022234913000001,-0.00324955449906
1.717597104429775e+18,-0.0117260468194,-0.0029755241121215,-0.0022550220369650003
1.717597104629775e+18,-0.0134654821348,-0.002721164904955,-0.001723029650666
1.717597104829775e+18,0.00542687284824,0.0036398967607799994,0.00179468648273385
1.717597105029775e+18,0.015310629550500002,0.006165865168349999,0.00288567569808
1.717597105229775e+18,0.020878554974500002,0.00825826020455,0.00308225263139
1.717597105429775e+18,0.0249347223895,0.008147924125049999,0.003270971483875
1.717597105629775e+18,0.031324202194499995,0.0117686029176,0.0025915307925
1.717597105829775e+18,0.031224966143499993,0.0036252155199950004,-0.00018813195637550003
1.717597106029775e+18,-0.023009542725949995,-0.012454555882270001,-0.0016631805337350002
1.717597106229775e+18,-0.022320992174,-0.007279170537171499,-0.000620277726545
1.717597106429775e+18,-0.0177257298955,-0.0071001585338499994,-0.0024364781682549995
1.717597106629775e+18,-0.023204740510000002,-0.006609883404535,-0.000842313387065
1.717597106829775e+18,-0.0185091748355,-0.006325645185750001,3.675020998499996e-05
1.717597107029775e+18,-0.0117418623523,-0.002179165836335,-0.00049031472296
1.717597107229775e+18,-0.00739330621455,-0.0039217136101,-0.0012090027577000002
1.717597107429775e+18,-0.0017798434592549996,0.0004948684889749998,-0.00010345969350000032
1.717597107629775e+18,0.012105315527250003,0.009966080611440001,0.005432752566278
1.717597107829775e+18,0.023821801143157895,0.010621311485947369,0.0027230182098421053
1.717597108029775e+18,0.029299646987500004,0.0100721899645,0.0023170870729
1.717597108229775e+18,0.026480033062000002,0.007504184846725,0.00387465792014
1.717597108429775e+18,0.026887409295499997,0.010837757936250001,0.0030813328223669996
1.717597108629775e+18,0.02113101810665,0.00398636721661,0.00014754551233299998
1.717597108829775e+18,-0.014600550255800001,-0.00856324634474,-0.001505897438765
1.717597109029775e+18,-0.031988392864,-0.010477718256349999,-0.00043565132658999995
1.717597109229775e+18,-0.028441660478,-0.00973187787475,-0.0019973638001677
1.717597109429775e+18,-0.029699883983499997,-0.009471787582099999,-0.0020691790385250004
1.717597109629775e+18,-0.024148816662,-0.0102086327736,-0.0032035679906349994
1.717597109829775e+18,-0.0123755652107,-0.0012174730247799998,0.0005176822887849999
1.717597110029775e+18,-0.0016304654883905006,-0.0013055070419799998,-0.0023269027703774993
1.717597110229775e+18,-0.003627852024765001,-0.00193401318399,-0.00030453089859200003
1.717597110429775e+18,0.00376216722665,0.004460132517765,0.0030131137114565
1.717597110629775e+18,0.016431982512949996,0.009079804818749999,0.00440835464975
1.717597110829775e+18,0.0238016545785,0.0102949591238,0.00322138022166
1.717597111029775e+18,0.028233029973,0.00719228213481,0.001349585736135
1.717597111229775e+18,0.027391692717,0.008313609857889998,0.0020264405641499997
1.717597111429775e+18,0.026662251725000002,0.009247632127000001,0.0025844044285550003
1.717597111629775e+18,0.018615675811300005,0.0025861835573285,-4.231063647850012e-05
1.717597111829775e+18,-0.016483798611099998,-0.008728889924049998,-0.0013638245872100003
1.717597112029775e+18,-0.030580603701999998,-0.00881140705887,-0.000362219288844
1.717597112229775e+18,-0.0277460379515,-0.00892111437865,-0.0018385076662970003
1.717597112429775e+18,-0.026358667761499997,-0.00864455769805,-0.0021589154610760003
1.717597112629775e+18,-0.023175935680000002,-0.00573642109514,-0.0008840681753
1.717597112829775e+18,-0.0099115655295,-0.0015220554195400002,-0.000755618128448
1.717597113029775e+18,-0.005069444433335,-0.0033758053555375,-0.0018569642677349995
1.717597113229775e+18,0.008138855174400002,0.005261483299925,0.0034286570036199996
1.717597113429775e+18,0.0168241858956,0.009130887838799999,0.00371486129014
1.717597113629775e+18,0.029976390674000004,0.01336079305055,0.00567871264675
1.717597113829775e+18,0.0294932530265,0.009886536048349999,0.0025174239883635
1.717597114029775e+18,0.030191328750000003,0.00441922564033,-0.000865431747045
1.717597114229775e+18,0.023256823699500002,0.00576467292878,0.002112411509804
1.717597114429775e+18,0.0015865563411619997,0.0007910016925700002,0.001483212446335
1.717597114629775e+18,-0.0283534968725,-0.010669245687950002,-0.00218107736443
1.717597114829775e+18,-0.039566985239,-0.014062027563550003,-0.003028091927885
1.717597115029775e+18,-0.029236912726500003,-0.009765940300099998,-0.0017408335116000002
1.717597115229775e+18,-0.023043313063500003,-0.00703270428335,-0.001472480734905
1.717597115429775e+18,-0.011827832250700002,-0.004298919835035,-0.0013645275146795001
1.717597115629775e+18,-0.00878994003907,-0.004182677710465,-0.002548520988715
1.717597115829775e+18,0.00215465617408,0.004680340125650001,0.0027977787656799998
1.717597116029775e+18,0.015772099931,0.00701204252,0.0025020426371749997
1.717597116229775e+18,0.024436748867,0.0109067598831,0.004311195516430001
1.717597116429775e+18,0.029084053169999995,0.00875525800415,0.0022856718860049994
1.717597116629775e+18,0.029853030945499997,0.011274879706150001,0.0038491946993299995
1.717597116829775e+18,0.02779858000578947,0.006638889028947368,0.0010842074590789474
1.717597117029775e+18,0.02264750432235,0.0004140535483,-0.0007409578189835
1.717597117229775e+18,-0.0162808442249,-0.0074256254821,-0.00020824996747480505
1.717597117429775e+18,-0.0299186619935,-0.007921964488450001,-0.00033720956415
1.717597117629775e+18,-0.026665852591,-0.01118440739785,-0.003217459679495
1.717597117829775e+18,-0.028577416392,-0.007844036224358,-0.001664390298548
1.717597118029775e+18,-0.020485735963,-0.004892302874375001,0.0009455465244600002
1.717597118229775e+18,-0.017380895885500007,-0.00385515594383,-0.0002866648022
1.717597118429775e+18,-0.0048521426157199996,-0.0014038253633950001,-0.0008097811951794998
1.717597118629775e+18,-0.0059549949711,-0.0019523746740999996,-0.00117820878516
1.717597118829775e+18,0.012339912541250001,0.00852730122879,0.005007764988100001
1.717597119029775e+18,0.023300634512,0.010187987727499997,0.0029807268642350004
1.717597119229775e+18,0.029291165248,0.0127205640999,0.004523468413375
1.717597119429775e+18,0.0313934942705,0.007680832140354999,0.000734380399981
1.717597119629775e+18,0.0339086010125,0.01206852621455,0.0033309872611999997
1.717597119829775e+18,0.0226296642804,0.0052322956385765,0.0015864946528700002
1.717597120029775e+18,-0.017653955065220002,-0.008649489703035,-0.0013667449938850002
1.717597120229775e+18,-0.027861329447,-0.0113271873901,-0.0006941825732702
1.717597120429775e+18,-0.027766143158000002,-0.009637271473599999,-0.001927966182127
1.717597120629775e+18,-0.028004654961999997,-0.01039029711415,-0.00290159080168325
1.717597120829775e+18,-0.0246342097415,-0.007034532190085001,-0.0013241236214370001
1.717597121029775e+18,-0.015039476332550001,-0.0029676756821,0.00012714175970699997
1.717597121229775e+18,-0.008013031852900001,-0.004822185775155001,-0.000561213388645
1.717597121429775e+18,-0.0042246274066015,-0.0012366218374300002,-0.0007830510266029001
1.717597121629775e+18,0.00628140063485,0.004432122083254999,0.0030533059266345
1.717597121829775e+18,0.015074695763049997,0.00942777607125,0.004821254580935
1.717597122029775e+18,0.0242725585595,0.00982315579895,0.0031580435694250003
1.717597122229775e+18,0.028443909902499998,0.00796039021755,0.0018316849833499998
1.717597122429775e+18,0.0308562621475,0.012487482605,0.0031978788436300004
1.717597122629775e+18,0.024979192949,0.007005678222200001,0.00223239231855
1.717597122829775e+18,-0.0082298976602,-0.008430698711865,-0.00173207534243
1.717597123029775e+18,-0.027019650489000003,-0.010695103648849999,-0.00212115352032
1.717597123229775e+18,-0.026722457819,-0.0093564611395,-0.00193934398702
1.717597123429775e+18,-0.025925799925000003,-0.0067479477033000005,-0.00070015635577
1.717597123629775e+18,-0.025815116986000003,-0.008660132769450001,-0.00176387892573
1.717597123829775e+18,-0.008510493021649999,-0.0006152365123700001,0.00011309129178844995
1.717597124029775e+18,5.910363970500004e-05,-0.00025586252450400006,-0.001002385141295
1.717597124229775e+18,-0.00423574769008705,-2.363959778500001e-05,-0.00032184619927
1.717597124429775e+18,0.0044921078255899995,0.0022507873246250002,0.002807158627545
1.717597124629775e+18,0.015284442250249997,0.00795849959795,0.003919240878975
1.717597124829775e+18,0.0247098883615,0.0113136430734,0.0035950560472499996
1.717597125029775e+18,0.0326053003785,0.00769761756583,0.0012860563468
1.717597125229775e+18,0.032854480297,0.012085759291350001,0.0036539689987449995
1.717597125429775e+18,0.027603787743999998,0.005807630275525001,0.001295042247494
1.717597125629775e+18,-0.002209749122,-0.006148016938468422,-0.0016776460444789469
1.717597125829775e+18,-0.0243794324805,-0.011241632535650001,-0.003208810067744999
1.717597126029775e+18,-0.027078920043999997,-0.00836914218935,-0.00147124810607
1.717597126229775e+18,-0.026924831372500003,-0.00862564039415,-0.0017455976922489999
1.717597126429775e+18,-0.023252052953499996,-0.008844070392650002,-0.002616168651755
1.717597126629775e+18,-0.018287450354500003,-0.0015491536586499997,0.0008467196603004998
1.717597126829775e+18,-0.00468813312465,-0.00347154616615,-0.0016777055919795
1.717597127029775e+18,-0.0047530594632099995,0.0011244903317700005,0.0015167173580600002
1.717597127229775e+18,0.008395227789715,0.00425706097719,0.00360780798361
1.717597127429775e+18,0.020777724031,0.0121994471176,0.004914335138179999
1.717597127629775e+18,0.028398999013999997,0.01075715462195,0.0034024863388200004
1.717597127829775e+18,0.0275582886305,0.0066985018782,0.0014916888904695
1.717597128029775e+18,0.0291681730185,0.01074172146685,0.0034700273419914994
1.717597128229775e+18,0.018047968263299997,0.0011180605854750002,0.00059853185671
1.717597128429775e+18,-0.028983737714499996,-0.013022689451300001,-0.003331266437035
1.717597128629775e+18,-0.033329624774499994,-0.0128880563889,-0.0031575516914299994
1.717597128829775e+18,-0.027974210307499997,-0.00622533757715,-0.00071724918677
1.717597129029775e+18,-0.0218496491205,-0.006386540410949999,-0.001547720830454
1.717597129229775e+18,-0.015789064765,-0.005891356902624999,-0.00147532912662
1.717597129429775e+18,-0.007552903378525,-0.005228388041965,-0.0019344300846599997
1.717597129629775e+18,-0.0013141831731499991,0.00032999783289949997,-0.000284903880599
1.717597129829775e+18,0.01316480506145,0.00989757388589,0.005059499642749999
1.717597130029775e+18,0.025183968990000007,0.009055298025915,0.00256657797148
1.717597130229775e+18,0.030698043201999998,0.015404840231649999,0.005509684619019999
1.717597130429775e+18,0.030592522304500002,0.0094815559919,0.00220961594025
1.717597130629775e+18,0.03162133097650001,0.0083326302124965,0.0008963086175300001
1.717597130829775e+18,0.0009710428066499998,-0.0052083064278375,-0.0012493395712649998
1.717597131029775e+18,-0.0263167738915,-0.008832036028699999,-0.0006165394908499999
1.717597131229775e+18,-0.03738689441200001,-0.0132172858812,-0.00238847156288
1.717597131429775e+18,-0.0292098916135,-0.0119871555131,-0.003073166974525
1.717597131629775e+18,-0.020062719658950002,-0.0047064387937,-6.091690155e-05
1.717597131829775e+18,-0.0087218648983,-0.0030245478728250005,-0.0013027120147775
1.717597132029775e+18,-0.01192602242768,-0.00305454123907,-0.0006414273870445002
1.717597132229775e+18,0.0070044538706,0.0033247221837999995,0.0027292962884899997
1.717597132429775e+18,0.020719211734500004,0.0112597330471,0.0050075332985
1.717597132629775e+18,0.027093252540500008,0.012333712074549998,0.003976509510600001
1.717597132829775e+18,0.032678462843500004,0.007788565736745001,0.001446984149585
1.717597133029775e+18,0.0367816000255,0.00814565706525,0.001776082999979
1.717597133229775e+18,0.01237937994325,-0.00022421968147650004,0.000726090418255
1.717597133429775e+18,-0.0254740660075,-0.0092893483345,-0.0015148417206476501
1.717597133629775e+18,-0.025702334196499997,-0.009798381152050001,-0.0018259968841214998
1.717597133829775e+18,-0.024284165446000004,-0.008261984935349999,-0.0019350043032949997
1.717597134029775e+18,-0.027304926793500002,-0.0075920260746,-0.00045041693374000007
1.717597134229775e+18,-0.0233570230645,-0.0069701237954885005,-0.0022227612324790006
1.717597134429775e+18,-0.01103826789225,-0.003348667989614501,-0.0006800733507449999
1.717597134629775e+18,0.006062858492263158,0.0036693867844736845,0.0018954936439157897
1.717597134829775e+18,0.020513492822,0.01182481625615,0.004305465961765001
1.717597135029775e+18,0.0288086232715,0.010273219143950001,0.0031897329722664998
1.717597135229775e+18,0.032035127096,0.013677455276,0.00486559864355
1.717597135429775e+18,0.027807562332499997,0.0083684203565145,0.0027433411570000005
1.717597135629775e+18,0.0230997335635,0.003205456479985,1.6224569999997302e-06
1.717597135829775e+18,-0.006372988806165001,-0.00283168815079,0.00018747610750800004
1.717597136029775e+18,-0.0239291554315,-0.009330252279349999,-0.002091640443613
1.717597136229775e+18,-0.031239801273000002,-0.0133134550647,-0.003475570142921
1.717597136429775e+18,-0.030597246624499995,-0.01244659230595,-0.004160218499595
1.717597136629775e+18,-0.026165182236999995,-0.003303300018850001,0.001926104084115
1.717597136829775e+18,-0.010820138977799999,-0.002081735420565,-0.000685888458955
1.717597137029775e+18,-0.0070878664731,-0.0028980114847300003,-0.0009951505343805001
1.717597137229775e+18,0.008377869799775,0.005008307577050001,0.0032319110818500004
1.717597137429775e+18,0.0216702720617,0.0125775403108,0.00450287336722
1.717597137629775e+18,0.029290643614000002,0.0122995526066,0.003634475066765
1.717597137829775e+18,0.032070950232,0.008775081671364999,0.00212027677331
1.717597138029775e+18,0.033745667525999994,0.00973589867325,0.0029541713068600003
1.717597138229775e+18,0.021624252152999998,0.00497549631412,0.0017989413825000005
1.717597138429775e+18,-0.029359032027249998,-0.01148265621065,-0.0011503600745599997
1.717597138629775e+18,-0.030777425691499993,-0.01271890799885,-0.00249004772634
1.717597138829775e+18,-0.030489824152999993,-0.010181151564,-0.0020927126519004998
1.717597139029775e+18,-0.028599918354500004,-0.00786750954485,-0.0008258753339550002
1.717597139229775e+18,-0.019513157895,-0.008007886796657,-0.0020722709130699996
1.717597139429775e+18,-0.0055876589963,0.0012471887924035,0.000370375253265
1.717597139629775e+18,-0.0024354023155099993,-0.000703176937475,-0.0006879973806849999
1.717597139829775e+18,0.0113602461294,0.0055223632719,0.00389376125538
1.717597140029775e+18,0.027757712919499994,0.01106756868515,0.003668473311735
1.717597140229775e+18,0.03653981732150001,0.015426204073000003,0.0053924162989
1.717597140429775e+18,0.032517405970999995,0.008682614984499999,0.00307793481036
1.717597140629775e+18,0.030358426645,0.004269065521294999,0.0002996392199400001
1.717597140829775e+18,-0.0145432317037,-0.004949902062123,-0.00011275041600000008
1.717597141029775e+18,-0.0377537239345,-0.015533419395999998,-0.0032411372285000004
1.717597141229775e+18,-0.034501644782999996,-0.010726670710850001,-0.0017184734575605002
1.717597141429775e+18,-0.024742936716,-0.009066968131499998,-0.00249024592345
1.717597141629775e+18,-0.0159308764615,-0.0049543915433455,-0.0011204310344750002
1.717597141829775e+18,-0.0044672281481400004,-0.0018968967138110002,-0.0019447658444
1.717597142029775e+18,-0.008015174778955001,-0.0019630841158199998,-0.0009917025570599998
1.717597142229775e+18,0.00907661723825,0.0072624224987449994,0.0048888167015
1.717597142429775e+18,0.019792379532000005,0.00913238729125,0.0032077766722805
1.717597142629775e+18,0.028572946042000003,0.012523545302450001,0.003766672196854999
1.717597142829775e+18,0.0334559567275,0.00951462447331,0.002332468878005
1.717597143029775e+18,0.031027498376500002,0.009496761799499999,0.0031122777495250003
1.717597143229775e+18,0.026099724136499997,0.005913006252595001,0.0017197625246069994
1.717597143429775e+18,-0.015201395285149999,-0.010753011610861,-0.002403815952155
1.717597143629775e+18,-0.026729844411052632,-0.008585928780157894,-0.0019354359615363157
1.717597143829775e+18,-0.0297554830085,-0.0111479371795,-0.003003066708415
1.717597144029775e+18,-0.030567538178999997,-0.0085821355459,-0.00044078192451
1.717597144229775e+18,-0.0233617882245,-0.008019035286299998,-0.0015200580585950003
1.717597144429775e+18,-0.01116015828445,-0.001818072097416,7.201295813650006e-05
1.717597144629775e+18,-0.002404891361805,0.0009884457336850002,0.00042443919229000004
1.717597144829775e+18,-0.0010359520091500003,-0.00238336003369,-0.000254218606263
1.717597145029775e+18,0.015480171005150001,0.008792491816384999,0.004466461762785001
1.717597145229775e+18,0.024200101383,0.01065502816455,0.004025033290849999
1.717597145429775e+18,0.032894927263500004,0.011857069400350001,0.0037568926695449997
1.717597145629775e+18,0.032084629776999996,0.00733903262356,0.0017034423422399997
1.717597145829775e+18,0.025220733228999998,0.006709385489,0.003034336806715
1.717597146029775e+18,-0.02278218131963,-0.010191856638915,-0.0019322284496799999
1.717597146229775e+18,-0.03878575749700001,-0.016624322533000002,-0.004689402994690001
1.717597146429775e+18,-0.030217724479500007,-0.009760436625999997,-0.001213711255755
1.717597146629775e+18,-0.024230973235,-0.0070446378552500005,-0.00067016175027
1.717597146829775e+18,-0.01361002190925,-0.003091516176765,-0.0009103285731344998
1.717597147029775e+18,-0.007894395885950001,-0.0029960456364300004,-0.001035611377984
1.717597147229775e+18,0.009935067128400001,0.00649192140014,0.0035476187593250002
1.717597147429775e+18,0.024668747467500002,0.012349690915799998,0.0038082023733250004
1.717597147629775e+18,0.03321540234649999,0.010031813721695,0.0024040992488149992
1.717597147829775e+18,0.0364987529815,0.0136798818364,0.004327915586500001
1.717597148029775e+18,0.02975818412349999,0.008871120820365,0.00291841799605
1.717597148229775e+18,0.0011818250292009995,-0.005176328018150001,-0.0005942416494500002
1.717597148429775e+18,-0.0304303212085,-0.010959051829100003,-0.001615438575385
1.717597148629775e+18,-0.0317757738755,-0.01108381794765,-0.002724257647035
1.717597148829775e+18,-0.0352506436415,-0.01095853699395,-0.00165326618599
1.717597149029775e+18,-0.02101200516335,-0.008307206281300002,-0.0018898826092084997
1.717597149229775e+18,-0.006704467767749999,0.0022649713675675,0.0019812940852039994
1.717597149429775e+18,-0.00648570818655,-0.00193818766862,-0.00089201552335
1.717597149629775e+18,0.009550591814,0.005510375876005001,0.0040224415716
1.717597149829775e+18,0.02256359919,0.009400059166075,0.0030338648357525
1.717597150029775e+18,0.03438845975299999,0.012990006012300001,0.004485374246750001
1.717597150229775e+18,0.0323723399085,0.00985948776305,0.003000277595200001
1.717597150429775e+18,0.0332974003635,0.004933556238770001,0.00086843128096
1.717597150629775e+18,0.0028889026955499996,-0.00023231608840999993,0.001300010702095
1.717597150829775e+18,-0.0276333788425,-0.01136572761475,-0.0030452269128900004
1.717597151029775e+18,-0.034557755012,-0.01394725518895,-0.0035872384089500006
1.717597151229775e+18,-0.030568560771500004,-0.0090300478744,-0.001182420051225
1.717597151429775e+18,-0.021235494781999993,-0.0043736422433000004,-0.00028503405620499995
1.717597151629775e+18,-0.0137508699205,-0.0039849179448325,-0.0009336616960849999
1.717597151829775e+18,-0.008960514061799998,-0.0012530132023500003,-0.0003139784093400002
1.717597152029775e+18,0.0128480866311,0.008011087361400002,0.0044821758521500004
1.717597152229775e+18,0.0255891531695,0.0128711790321,0.0038818182075499993
1.717597152429775e+18,0.03332761861473684,0.011014184620894736,0.0031806543641894735
1.717597152629775e+18,0.036268869322000005,0.011312959994699999,0.0034300729282499996
1.717597152829775e+18,0.030390826054999997,0.00943066051109,0.0035976340644499998
1.717597153029775e+18,-0.012502597201650001,-0.006498569331495001,-0.00023632228838999991
1.717597153229775e+18,-0.0294701432815,-0.0123304457175,-0.002586148725815
1.717597153429775e+18,-0.0296518888325,-0.0108639479136,-0.002662522275965
1.717597153629775e+18,-0.0314499254335,-0.01160413522785,-0.00312658929016
1.717597153829775e+18,-0.023921235510500002,-0.00986330658195,-0.00271609344048
1.717597154029775e+18,-0.007283737801499999,0.00210118331015855,0.0020405830931749997
1.717597154229775e+18,-0.0040698832597725,-0.00246058448093,-0.0016773776384879997
1.717597154429775e+18,0.012230046932199999,0.007550322555044999,0.003917952836459999
1.717597154629775e+18,0.023361511528,0.009707750293456,0.00362575834153
1.717597154829775e+18,0.0343721877785,0.01316742743365,0.004634766269175
1.717597155029775e+18,0.03489679666300001,0.01090600539435,0.0032878566533500004
1.717597155229775e+18,0.031018763221999996,0.005041077558499999,0.00031961114144
1.717597155429775e+18,-0.010105205221900001,-0.004277675680737499,0.0006856655003079999
1.717597155629775e+18,-0.034006249905,-0.012617356609,-0.0028031343594500002
1.717597155829775e+18,-0.0314950640315,-0.014649420603999999,-0.0039260724095
1.717597156029775e+18,-0.027424200996499996,-0.007484360411449999,-0.000825906882535
1.717597156229775e+18,-0.0170486846475,-0.004567019804334999,-0.0004953693482649999
1.717597156429775e+18,-0.010200551361795,-0.002060028247095,-0.00033388662844500007
1.717597156629775e+18,0.0004883068851499999,0.00021697892854,0.001127703324905
1.717597156829775e+18,0.0223562854815,0.011587826604750003,0.004745276377055
1.717597157029775e+18,0.031060511152500005,0.014477443368000002,0.00469089242401
1.717597157229775e+18,0.038510770537,0.006689445302115,0.001038879528615
1.717597157429775e+18,0.03264201665350001,0.0141230611136,0.0050659443834
1.717597157629775e+18,-0.004243473034135,-0.00599404326665,-0.00031562275244
1.717597157829775e+18,-0.034210775606000006,-0.015325643867399999,-0.003883018868575
1.717597158029775e+18,-0.029132732843500004,-0.01043959269365,-0.0024082763353900005
1.717597158229775e+18,-0.029150220657499996,-0.009636223549149999,-0.00174644920048
1.717597158429775e+18,-0.021695853954499997,-0.00836852029906,-0.002018019626685
1.717597158629775e+18,-0.010412604013,-0.004584483697478999,-0.0012811141321265001
1.717597158829775e+18,-0.006271439348640001,-0.00068689062601,-5.475195355500004e-05
1.717597159029775e+18,0.014462450659499998,0.009158968669050001,0.003927792992835
1.717597159229775e+18,0.025355515534500002,0.010016592650184999,0.0028425991652349996
1.717597159429775e+18,0.033776504732500004,0.0146429155955,0.005061740719299998
1.717597159629775e+18,0.034997366927000007,0.012365796276599998,0.003437220805774999
1.717597159829775e+18,0.0360193870035,0.00434359075188,-0.0007577745592900001
1.717597160029775e+18,0.0275469769255,0.009794009617249999,0.0036730817518149995
1.717597160229775e+18,-0.02179912347389,-0.008818928291655,-0.001486537721945
1.717597160429775e+18,-0.038312678227000005,-0.014546245175,-0.0033966610907449997
1.717597160629775e+18,-0.029698547442,-0.0102704227669,-0.0018586633726800001
1.717597160829775e+18,-0.034685721901,-0.008724162191649999,-0.0011738143395335
1.717597161029775e+18,-0.0253693385055,-0.006865410902775001,-0.0011186168877800001
1.717597161229775e+18,-0.010552383609799999,-0.004722289153345,-0.00030742270180499976
1.717597161429775e+18,-0.010172301633905263,-0.0008379895435263159,-0.0002501589908526316
1.717597161629775e+18,0.012126209679649998,0.007220712682030001,0.003046441578755
1.717597161829775e+18,0.023669258132500003,0.008730840484433,0.002607296814637
1.717597162029775e+18,0.036123760975999994,0.015968714329000003,0.00543761494345
1.717597162229775e+18,0.036491207405999995,0.012057723338750001,0.00358436715318
1.717597162429775e+18,0.0337360469635,0.006261579192125,0.0008177869837399999
1.717597162629775e+18,0.00302221889136,-0.0028497971769300004,0.001467382500436
1.717597162829775e+18,-0.0348387788055,-0.012826031376479998,-0.00286868844411
1.717597163029775e+18,-0.0387308690695,-0.0133743000217,-0.0036505084251349995
1.717597163229775e+18,-0.031357828994,-0.01166587434705,-0.0028449885198350002
1.717597163429775e+18,-0.0225766186605,-0.0053002408938000005,-0.00034828614432999994
1.717597163629775e+18,-0.009368188853800002,-0.0034235840022235004,-0.000722786015845
1.717597163829775e+18,-0.0021831405358199996,0.0005341536830600003,-0.0001454796992249999
1.717597164029775e+18,0.01792144589165,0.011274905443900002,0.004864985262950001
1.717597164229775e+18,0.030798924900499996,0.0135053971773,0.004684261267550001
1.717597164429775e+18,0.0349758037375,0.010046009999635,0.002643935359105
1.717597164629775e+18,0.034353220556,0.009470836358449999,0.0019348619854874997
1.717597164829775e+18,0.029741585999499998,0.009212260926100002,0.0034542684443099997
1.717597165029775e+18,0.0014264520492000006,-0.00430141653662,-0.0007137289736339999
1.717597165229775e+18,-0.03534628609200001,-0.0126281085653,-0.00261983533861
1.717597165429775e+18,-0.0333968175575,-0.01142816676315,-0.0029449841358
1.717597165629775e+18,-0.035693409201,-0.01189561886655,-0.002983684837745
1.717597165829775e+18,-0.026124007998500003,-0.01052371261225,-0.00338924680844
1.717597166029775e+18,-0.014275418594600001,-0.0010812397289550002,0.0029096842511149995
1.717597166229775e+18,-0.005653272441149999,-0.0024652963038100002,-0.001919219619536
1.717597166429775e+18,0.003021587291445,0.00391289655251,0.001902020187089
1.717597166629775e+18,0.021324191521,0.010394174384749998,0.004979886359065001
1.717597166829775e+18,0.0366254456345,0.014939340157500003,0.004827385931314999
1.717597167029775e+18,0.038245672360500006,0.0139103792595,0.005761897657015
1.717597167229775e+18,0.027958105434230003,0.004227474273995,0.00032522687688499996
1.717597167429775e+18,-0.00924695616045,-0.0012192145802634995,-0.0037337527144
1.717597167629775e+18,0.012485698773700002,-0.0240182842469,-0.025286332820150005
1.717597167829775e+18,0.0058452575121,0.0004987182798499989,-0.029884783271674997
1.717597168029775e+18,0.03845628802679,0.04251605579550001,0.0085718070629
1.717597168229775e+18,-0.06713164426615001,-0.01901038492843,-0.01274271816955
1.717597168429775e+18,0.08446417883499999,0.0029652795744999996,-0.018776983697824996
1.717597168629775e+18,0.18504724316,0.10535228251699999,0.033787930196849995
1.717597168829775e+18,0.317002331465,0.1267810819575,0.0570897690945
1.717597169029775e+18,0.315726435935,0.321637588735,0.137102255781
1.717597169229775e+18,0.22918590307,0.1384587897115,0.119198870291
1.717597169429775e+18,0.32112161757700003,-0.22020710514279998,0.041699090922600004
1.717597169629775e+18,-0.400698915125,0.11211930383499999,0.09995118076925003
1.717597169829775e+18,-0.08710606763355,-0.29349017218,-0.167103031086
1.717597170029775e+18,0.10864229446550003,0.010166529755000028,0.14377315435799998
1.717597170229775e+18,0.28351708461684205,0.06392381986894738,0.023437090510473685
1.717597170429775e+18,0.21618800517599998,-0.01186737213505,-0.09308151677299997
1.717597170629775e+18,0.12509349309949996,0.013388413196050001,-0.02509567646827
1.717597170829775e+18,0.008856989583450001,-0.180880212785,-0.140882263337
1.717597171029775e+18,-0.017269469052999996,-0.13222362093354997,-0.11973174512750002
1.717597171229775e+18,-0.017255269691045003,-0.1806414293175,-0.10570147055799999
1.717597171429775e+18,0.03660483541585,-0.07808298254000001,-0.0720443411929
1.717597171629775e+18,0.08677822821865001,0.0033569696799000013,-0.05931137441630001
1.717597171829775e+18,0.0041445409397999995,0.1128227604435,0.09841183786350001
1.717597172029775e+18,-0.13864066284350002,0.057091345452105,0.065752612798
1.717597172229775e+18,-0.1552515123965,0.045861714519880005,0.08347845189420001
1.717597172429775e+18,-0.135049435879,0.0037909866309999976,0.009512997628185
1.717597172629775e+18,-0.13485359772400002,-0.16682640761499998,-0.0626139424755
1.717597172829775e+18,-0.038850715817199996,-0.23480352223950002,-0.11310057229849999
1.717597173029775e+18,0.0772520177362,0.012716276223299999,0.0018390546320499967
1.717597173229775e+18,0.1673983754585,0.04289154145355,-0.07359008833309999
1.717597173429775e+18,0.09545703509350001,0.1643369495885,0.055508952333850003
1.717597173629775e+18,-0.1632487153003,0.04002104296555,0.046755747576749995
1.717597173829775e+18,-0.11550802905250002,0.022797696946000003,0.037047101068350005
1.717597174029775e+18,-0.1783232416855,0.09141724868599999,0.01285659553305
1.717597174229775e+18,-0.26291504054500003,-0.18834231272600002,-0.05965897678495
1.717597174429775e+18,-0.13777271807349997,-0.2091185592,-0.07135666101379999
1.717597174629775e+18,0.1215873596155,-0.07434468539750001,-0.0676528691844
1.717597174829775e+18,0.12655979495695,-0.0339941365755,-0.07361353603075002
1.717597175029775e+18,0.190745546304,0.0909105185425,0.0052523341963500005
1.717597175229775e+18,0.0573730491324,0.2458909072845,0.03383561055525
1.717597175429775e+18,-0.09581633786949999,-0.036709394391450004,0.06759532155711499
1.717597175629775e+18,-0.1393036954135,0.033534648316850005,0.006994731863250001
1.717597175829775e+18,-0.150784374768,-0.1242894347265,-0.053786547753400006
1.717597176029775e+18,-0.10524109858595002,-0.15472969295395003,-0.026414746907729998
1.717597176229775e+18,0.10405925754749998,0.072613718452,-0.026751323486970003
1.717597176429775e+18,0.145728444495,0.014485826242600003,-0.012475319811135002
1.717597176629775e+18,0.16696111727100002,0.14036755209475,0.017041507036295
1.717597176829775e+18,0.023172027062000007,-0.07179782456095,-0.047787972745000004
1.717597177029775e+18,-0.0796733385925,0.0988831956424,0.09408043110165
1.717597177229775e+18,-0.239470038564,0.015162076625799997,0.05744924780525
1.717597177429775e+18,-0.161032599577,-0.0360516540361255,0.050652538706499994
1.717597177629775e+18,-0.034084574871950005,-0.034641229061985,0.0077235148974000006
1.717597177829775e+18,0.06015825661495,0.032984142762299995,-0.010395952419820002
1.717597178029775e+18,0.19852559642,0.07032389948935,-0.01863460189194
1.717597178229775e+18,0.26267258226499995,-0.003180243447219999,-0.0757726630195
1.717597178429775e+18,-0.16903523452504995,0.058064010736,0.0494114574965
1.717597178629775e+18,0.13487490406924998,-0.21887388825299997,0.0537491446255
1.717597178829775e+18,0.0936561167245,0.17163495700295,0.22769767595399998
1.717597179029775e+18,-0.0678998243636842,0.06249313262736842,0.09528466518384208
1.717597179229775e+18,0.2410844291495,-0.2691707761885,-0.221670467029
1.717597179429775e+18,0.44399423301,0.44463002421500003,-0.16069714222210002
1.717597179629775e+18,0.314532362301,-0.011627350842650002,-0.1181755717895
1.717597179829775e+18,0.196447031007,0.043026152166999995,0.0861301414595
1.717597180029775e+18,-0.020657791761,0.10028574699599999,0.0749497852734
1.717597180229775e+18,-0.01098473858475,0.0892684448017,0.010358561341399999
1.717597180429775e+18,0.026839044037219994,0.150918249598,0.032592301237649994
1.717597180629775e+18,0.03558978445429999,0.15804991387499995,-0.050066951990949994
1.717597180829775e+18,0.02189046263679999,0.047625546715049996,-0.0677664630836
1.717597181029775e+18,-0.0958276439719,0.025823633466000008,-0.0475045945005
1.717597181229775e+18,0.18241074151617,0.03259051414645,0.10705958339785
1.717597181429775e+18,0.4205226168,0.10500054212370002,0.3386796077677
1.717597181629775e+18,1.7858688086449999,-0.05829633849750002,1.9628027707399998
1.717597181829775e+18,3.0355427533399997,-2.289688716469,3.8895654917
1.717597182029775e+18,-5.459901571049999,-5.6379651725,1.521954188075
1.717597182229775e+18,-7.4383126731,-5.431111335815,-4.2835605382
1.717597182429775e+18,-3.4529824376000002,-2.0856561183850006,-1.461316286745
1.717597182629775e+18,-1.02837355033,-0.8923283368525,-0.7387483286390001
1.717597182829775e+18,-0.5531243663300001,0.2670660013405,-2.19615272873
1.717597183029775e+18,0.46309493221529996,-0.40271577909399997,-3.4699709177000004
1.717597183229775e+18,,,
