Timestamps,Gyro_X,Gyro_Y,Gyro_Z,Label
1.7176722990931743e+18,-0.1053733965790952,0.2729091204390476,-0.0002647510580952,1
1.7176722992931743e+18,0.1829585529775,0.938295596825,0.0562500464751499,1
1.7176722994931743e+18,0.6530613489499999,0.9207680349960002,0.382121989125,1
1.7176722996931743e+18,0.7672543054765,0.0852954851028,-0.1284499393755,1
1.7176722998931743e+18,0.1340072906515,0.0489067342144999,0.4676426333694999,1
1.7176723000931743e+18,0.4170167420085001,0.3189088081978,0.3311202622892,1
1.7176723002931743e+18,0.9587796508865,-0.07964928429415,-0.1645101495195,1
1.7176723004931743e+18,2.1926803767950003,-0.909679943315,-0.0256266971497,1
1.7176723006931743e+18,0.4959268853689999,1.590351325685,1.1112507045549995,1
1.7176723008931743e+18,1.5308097315385,-0.2232993794115,-2.72215677806,1
1.7176723010931743e+18,1.82138667095,-2.55666366225,-0.4868409634100001,1
1.7176723012931743e+18,-1.2836581717455,-3.1343163967,2.17032531495,1
1.7176723014931743e+18,0.0048428609695,-3.14359905725,0.1969803000486999,1
1.7176723016931743e+18,0.276968751809,-2.2704280272449995,0.2487974386095,1
1.7176723018931743e+18,0.1099777670544499,-3.1866656781,-0.4965199094400001,1
1.7176723020931743e+18,-0.1382007414161,-1.7620321184249998,-0.2415545181865,1
1.7176723022931743e+18,-0.4536644929967,-1.4031286418,-0.6431797748705,1
1.7176723024931743e+18,-0.5379316925950001,-0.8125668924045002,-0.41643936261,1
1.7176723026931743e+18,-1.111479634135,-0.7301399322837501,-0.700546243745,1
1.7176723028931743e+18,-1.0494084567149995,-1.0348292887499997,-0.1494655350205,1
1.7176723030931743e+18,-0.88990455265,-0.6846184670949998,-0.0769252432439999,1
1.7176723032931743e+18,-0.4703436493949999,-0.3472483566125,-0.137373308368,1
1.7176723034931743e+18,-0.044661539425,-0.0743403529729,-0.178649556447,1
1.7176723036931743e+18,-0.02843150415595,-0.1137525832254999,-0.1039557532425,1
1.7176723038931743e+18,-0.1825411926925,0.305246158135,0.0021528124564499,1
1.7176723040931743e+18,-0.8037948132199999,-0.0832455350095,0.1140097686975,1
1.7176723042931743e+18,-0.5107430934849998,0.1093972416653,0.08686573768655,1
1.7176723044931743e+18,-0.2662661934745,-0.06636092341405,0.0547725722145,1
1.7176723046931743e+18,0.4078948787586801,-0.0016624864189,0.0949286244824999,1
1.7176723048931743e+18,0.2024846523075,-0.05024224972035,-0.0452545421235,1
1.7176723050931743e+18,-0.439965651925,0.0088972520118,0.0293584564908499,1
1.7176723052931743e+18,0.077807150135,-0.214076055045,0.024024196248,1
1.7176723054931743e+18,0.472520379629,0.1353743958721,-0.0647875282082,1
1.7176723056931743e+18,-0.44657600373,0.0169783303986,0.0050966572472999,1
1.7176723058931743e+18,-0.1957606862255,-0.08306677204455,0.0277667204451999,1
1.7176723060931743e+18,0.61791544109,0.0154966246390999,-0.1100199497239999,1
1.7176723062931743e+18,-0.3285292839645,0.0409162921087,0.0119189454704049,1
1.7176723064931743e+18,-0.1756486275095,-0.0464698095440499,0.0367114498613,1
1.7176723066931743e+18,0.4733992563635,0.1602807691355,0.0683596868375,1
1.7176723068931743e+18,0.0522885206174999,0.0511546585476,0.05072926046785,1
1.7176723070931743e+18,-0.4420414820199999,-0.27853162736,-0.1007505247359999,1
1.7176723072931743e+18,-0.0698460276461999,-0.1624848499899999,-0.155578045161,1
1.7176723074931743e+18,0.5923796050350001,-0.20383440624075,-0.00464174132795,1
1.7176723076931743e+18,0.9543441474349998,-0.6884227540005,-0.31984163561015,1
1.7176723078931743e+18,0.7654870599499999,-2.09356398585,-0.7859023124200001,1
1.7176723080931743e+18,0.55924198031,-1.5460263132999998,-0.4086812168474999,1
1.7176723082931743e+18,0.4950650889405,-1.119170650105,0.243636058047,1
1.7176723084931743e+18,1.2294053420300002,-2.43157813853,-0.0743808603269999,1
1.7176723086931743e+18,3.6657337546,-2.6766257704500003,3.38969609735,1
1.7176723088931743e+18,-1.1045515001,-2.2110116034295,0.150585764463,1
1.7176723090931743e+18,-0.7454805064167499,-0.588262923532,0.31334528923,1
1.7176723092931743e+18,0.0454646612515,-0.1594716680231,0.09922296646915,1
1.7176723094931743e+18,0.1279228308361905,-0.0041893680656952,0.186463417176,1
1.7176723096931743e+18,0.3250932116105,-0.0617983893602,-0.253320632219585,1
1.7176723098931743e+18,0.05049104767245,-0.16620627669235,-0.2245914899452,1
1.7176723100931743e+18,0.26687579094715,0.06398344876855,0.2125562280375,1
1.7176723102931743e+18,0.1234226573274999,-0.0235417596159999,0.9079423035371448,1
1.7176723104931743e+18,0.0978122932196499,-0.0639421166875,0.149462064623,2
1.7176723106931743e+18,-0.2360781096118,-0.572215847974,-0.5477487722335,2
1.7176723108931743e+18,0.135393640696,0.4977074075089999,-0.4840718649249999,2
1.7176723110931743e+18,-0.46896466017,0.0636852160115,-1.00550101101,2
1.7176723112931743e+18,-1.7280410163150002,0.2067963066839999,-2.1890374301499995,2
1.7176723114931743e+18,-0.0575813539229999,-0.1794587217462499,0.1316704205129999,2
1.7176723116931743e+18,0.7507893887441001,0.11313679239885,-0.0016605028132102,2
1.7176723118931743e+18,-0.0805544314905,0.23346789293,0.0265642935055575,2
1.7176723120931743e+18,-2.658697229635,3.706299039675001,1.2681912386941998,2
1.7176723122931743e+18,-1.0404945730950002,2.5111940861,0.3688912084124999,2
1.7176723124931743e+18,-1.01951273975,2.1345462739999994,0.665891252286,2
1.7176723126931743e+18,-0.39748274983,1.9657749355,0.7910792261300001,2
1.7176723128931743e+18,-0.537675234675,2.0281605899,0.513872634255,2
1.7176723130931743e+18,-0.717888870875,1.165430057015,0.3528604865095,2
1.7176723132931743e+18,-0.0007048098355,-0.095518027802,0.18063978307755,2
1.7176723134931743e+18,0.386560665815,0.1295337811165,0.0904074219929999,2
1.7176723136931743e+18,0.03033068736145,-0.1005322746915,-0.0727080637107499,2
1.7176723138931743e+18,-0.45340778977,0.3179315253075,0.095046240541,2
1.7176723140931743e+18,-0.2999849308375,0.2346534155375,0.0551494695295,2
1.7176723142931743e+18,0.4946813798282998,-0.0538611798807949,0.0772917855479499,2
1.7176723144931743e+18,-0.0527879802465,-0.0883474102249999,0.0213704432355,2
1.7176723146931743e+18,-0.2377652794049999,0.0283421031439499,-0.0021409685599499,2
1.7176723148931743e+18,0.12600844539715,-0.1111989254113499,-0.079101044710685,2
1.7176723150931743e+18,0.1035799666354999,0.01300510503265,0.00949439513645,2
1.7176723152931743e+18,-0.12937215067075,-0.0247795252816,0.02381415787765,2
1.7176723154931743e+18,0.15290933181845,-0.0521478031683999,-0.0461577359692999,2
1.7176723156931743e+18,0.0990468135164999,0.01980095585095,0.101768868601,2
1.7176723158931743e+18,-0.2022893934254,-0.0807394230781999,0.04199042176061,2
1.7176723160931743e+18,-0.0733599092667499,-0.13807789822075,-0.0864690765775,2
1.7176723162931743e+18,0.22622842087525,0.386993002145,0.1472413737859999,2
1.7176723164931743e+18,0.698912259935,-0.1785475284984,-0.0117647881585,2
1.7176723166931743e+18,0.48173148186,-1.037179353805,-0.3927551262099999,2
1.7176723168931743e+18,0.2335463125275,-0.7879104845049999,-0.5681046776650001,2
1.7176723170931743e+18,0.2207767870249999,-0.97678071708,-0.4144530177265,2
1.7176723172931743e+18,0.031773316248,-1.3772047637999998,-0.3013017272959,2
1.7176723174931743e+18,0.34208622873,-1.321583366335,-0.312258232011,2
1.7176723176931743e+18,0.1882600829039999,-1.30918545425,0.2708380859207,2
1.7176723178931743e+18,0.577455771322,-1.7013177872000005,0.2944452151749999,2
1.7176723180931743e+18,0.00011818744,-1.73714458351,-0.2854968293604999,2
1.7176723182931743e+18,1.152054777755,-2.78321057855,-0.12562353985,2
1.7176723184931743e+18,0.66242603473905,-1.867084481585,-0.4938807329344999,2
1.7176723186931743e+18,-0.006512267865095,-0.178317096825,-0.0696010884455699,2
1.7176723188931743e+18,-0.0153226261032,-0.080067784428,-0.0011278589138,2
1.7176723190931743e+18,0.00564668645383,0.0961231450271,-0.1483793250042,2
1.7176723192931743e+18,-0.046691678702695,0.307605557845,0.04552112359353,2
1.7176723194931743e+18,-1.8809834808350003,3.9620712399500007,0.6540920494219999,2
1.7176723196931743e+18,-0.4363978659535001,2.2167343795,0.58952012657,2
1.7176723198931743e+18,-0.3506543214952381,2.474184944523809,0.8310178921980952,2
1.7176723200931743e+18,0.02667757975645,2.3719671011,0.27584777065,2
1.7176723202931743e+18,-0.267654716975,2.09294427035,0.54163317531,2
1.7176723204931743e+18,-0.489251589775,0.7790622413280002,-0.051231396061,2
1.7176723206931743e+18,-0.337535024433,0.34152782476475,0.0181035190755,2
1.7176723208931743e+18,0.1032238876985,0.316610920339,0.0623005499959499,2
1.7176723210931743e+18,0.2869476638492,0.20884969216,0.29987230980175,2
1.7176723212931743e+18,0.298497942823,-0.220768912138,-0.1957721363655,2
1.7176723214931743e+18,-0.5415307417400002,0.0271930644695,-0.0507987997785249,2
1.7176723216931743e+18,-0.278873175747,-0.2705843498950001,-0.0876636787315,2
1.7176723218931743e+18,0.205303185734935,-0.03863133047755,-0.173601317397,3
1.7176723220931743e+18,0.2230445470745,0.05477762242935,0.1127811461712499,3
1.7176723222931743e+18,-0.3602377459449999,-0.01473968227555,-0.023176951434,3
1.7176723224931743e+18,-0.0565379037492,-0.3423863332715,-0.2379774780875,3
1.7176723226931743e+18,0.2792084973315,0.2826402648746,0.22755292583865,3
1.7176723228931743e+18,-0.04798565495685,0.236463297566,0.1677134223325,3
1.7176723230931743e+18,-0.2073426393944999,-0.00881518498145,-0.0445979773564,3
1.7176723232931743e+18,0.013860763098,-0.0739495365915,-0.03338745579975,3
1.7176723234931743e+18,0.1986544293404999,0.2085280434194999,0.1075014613549999,3
1.7176723236931743e+18,-0.200982124554,-0.080206371283,-0.06637781178725,3
1.7176723238931743e+18,-0.0202858964927499,-0.134840983254,-0.0352101331575,3
1.7176723240931743e+18,0.3125670841819999,0.1400878915614999,0.06716316077175,3
1.7176723242931743e+18,0.5576917812150001,-0.181453753029,-0.166850779015,3
1.7176723244931743e+18,0.407273292555,-0.030383888536,-0.2225941684049999,3
1.7176723246931743e+18,0.0660738219535,-0.06976885656005,-0.127713969717,3
1.7176723248931743e+18,0.5935729802,0.0469236909476,0.158371536897,3
1.7176723250931743e+18,0.6726392871905,0.27642575344145,0.3473008681145,3
1.7176723252931743e+18,-0.01758498364055,0.177269230405,0.0747143429267499,3
1.7176723254931743e+18,0.77677024007,-0.08590939287805,-0.0742278624354999,3
1.7176723256931743e+18,0.874916064745,0.02475672734505,-0.338109379265,3
1.7176723258931743e+18,1.2746390581499998,0.193616759407,-0.4778022378649999,3
1.7176723260931743e+18,1.08493341506,-0.0227200133865,-0.271621763991,3
1.7176723262931743e+18,0.7579506113950001,-0.836820960095,-0.2318638077559499,3
1.7176723264931743e+18,0.1983455911309999,-0.8435085788099999,-0.715486025875,3
1.7176723266931743e+18,0.02560621004035,-0.6175474435150001,-0.219761035036,3
1.7176723268931743e+18,0.0873748171854,-0.5813153832966501,0.0719238987155,3
1.7176723270931743e+18,0.06105619970465,-0.57039079964,-0.2613994913195,3
1.7176723272931743e+18,0.083790458741,-0.64645193816,-0.1313172224815,3
1.7176723274931743e+18,0.48902202847,-0.720734554495,-0.2299688851734,3
1.7176723276931743e+18,0.524777966367,0.1848687786669999,0.0325384954654999,3
1.7176723278931743e+18,1.26167626382,0.204597945535,-1.614873193923,3
1.7176723280931743e+18,-2.446438721585,-0.6096839683685001,-2.3576951205800003,3
1.7176723282931743e+18,-0.0526955143895,0.353644907425,0.2265730996019999,3
1.7176723284931743e+18,-0.8764502167849999,-0.601009174032,0.940322077275,3
1.7176723286931743e+18,-0.47081376611,-1.9525104433450005,0.0096824564399999,3
1.7176723288931743e+18,0.0483217921014999,-0.7714520772295251,0.5771342169229,3
1.7176723290931743e+18,-0.1272613650643499,0.0784714607454999,0.2227735886294999,3
1.7176723292931743e+18,0.16191482669775,0.1166264468874999,0.037864931648525,3
1.7176723294931743e+18,0.075503875682,-0.0111007630839999,0.101150522719645,3
1.7176723296931743e+18,0.2300851513629999,0.31827690378,-0.1260192487355,3
1.7176723298931743e+18,-0.0713947863280499,-0.1067788230284999,-0.032204517304,3
1.7176723300931743e+18,-0.177786818503,-0.127841331301,-0.076920377647545,3
1.7176723302931743e+18,-0.2314452713452381,-0.1341341449204761,0.0052640629658571,3
1.7176723304931743e+18,-0.1970290672,-0.18226290421,0.015893950277695,3
1.7176723306931743e+18,-0.1980770818915,-0.0623324827265,-0.0624658279145,3
1.7176723308931743e+18,-0.0444919666936499,-0.239653851845,-0.17510414943,3
1.7176723310931743e+18,-0.19004528,-0.20680309776,-0.2555969342599999,3
1.7176723312931743e+18,-0.3824176589055,-0.2777795468474999,-0.3757602162749999,3
1.7176723314931743e+18,0.0416446032944999,-0.0611425889705,-0.4887528438914999,3
1.7176723316931743e+18,0.1681609885104,-0.6861143957909999,0.0643656016710999,3
1.7176723318931743e+18,0.791180293295,-0.0430506939515,-0.1548284154919,3
1.7176723320931743e+18,0.502214951075,-0.348848174885,-0.258313833185,3
1.7176723322931743e+18,0.3674439137899999,-0.2032727930715,-0.0375317317469999,3
1.7176723324931743e+18,0.4960453701365,0.6682978093699999,-0.0597029327465,3
1.7176723326931743e+18,0.777093681685,0.65066459625,-0.1182216125121,3
1.7176723328931743e+18,0.3821727645573683,0.4379405418,-0.1738953485599999,3
1.7176723330931743e+18,,,,3
