Timestamps,Acc_X,Acc_Y,Acc_Z
1.7177168179552387e+18,0.6767712184571428,3.878712746761905,8.989798475047618
1.7177168181552387e+18,0.2253414001445,4.023625328,8.825893959100002
1.7177168183552387e+18,0.12277468872800001,4.1259525376,8.76782221985
1.7177168185552387e+18,0.32536340331950003,3.86376525875,9.032786224399999
1.7177168187552387e+18,0.49958610533500003,4.079923255999999,8.7787794342
1.7177168189552387e+18,0.46315935515,4.446443573049999,7.8704158859
1.7177168191552387e+18,0.45744124605099995,3.7829632874000003,8.07141790015
1.7177168193552387e+18,1.0560111563380954,1.9430166189999998,9.489651881476192
1.7177168195552387e+18,0.9978699188949998,0.533281036365,10.531574477
1.7177168197552387e+18,1.23979682917,0.139607185367,11.6470997315
1.7177168199552387e+18,1.4623165969500003,0.7915764083894999,10.5609733429
1.7177168201552387e+18,0.6439234542750001,2.4438255387,9.212008529599997
1.7177168203552387e+18,0.8332422637750001,3.56957453155,8.54048995975
1.7177168205552387e+18,0.59296192933,5.0397198487,7.1500538864
1.7177168207552387e+18,0.7212145124333335,5.0629714965714285,6.767762080666666
1.7177168209552387e+18,0.6083798675530001,3.2467932586000003,8.3154928436
1.7177168211552387e+18,1.05533541877,1.0676922225799999,10.013187469399998
1.7177168213552387e+18,1.7704283752500003,-0.53490515899275,10.6439008944
1.7177168215552387e+18,1.8962941360999994,-0.59439894104,11.6848512265
1.7177168217552387e+18,1.3083093566100001,0.1970502319291,10.20746846065
1.7177168219552387e+18,1.1393033066149998,1.7602719955000001,9.7603931577
1.7177168221552387e+18,0.27164012147705,2.45078606425,8.994136596649998
1.7177168223552387e+18,0.17058098928047616,4.312617579809524,7.9248986597142865
1.7177168225552387e+18,0.52602861785,4.932946884199999,6.982492332450001
1.7177168227552387e+18,0.488868392976,3.9884035722000006,7.732896858249999
1.7177168229552387e+18,1.16395703893,1.7183666381600002,9.434692955150002
1.7177168231552387e+18,1.01015187832,0.4093013534390001,10.576548454900001
1.7177168233552387e+18,0.65980542757,-0.39986347962350005,11.410756211
1.7177168235552387e+18,1.043809387145,0.4058959350575,10.55817416335
1.7177168237552387e+18,0.7198601858809524,0.9400594220476192,9.784388972380954
1.7177168239552387e+18,0.7629259872649999,2.2304143294999994,9.759786918600001
1.7177168241552387e+18,1.0480904845649999,3.4533337556,8.4743125763
1.7177168243552387e+18,0.8719218291949999,5.09633212275,7.128386444049999
1.7177168245552387e+18,1.14112202452,4.6239669113,6.74810224905
1.7177168247552387e+18,1.265438506955,3.35769014735,8.81676294715
1.7177168249552387e+18,1.8307678985499998,1.676828018185,10.184304131450002
1.7177168251552387e+18,1.7905615081500001,1.58604180905,10.622330749849999
1.7177168253552387e+18,2.113740168904762,1.741343144,10.92931522857143
1.7177168255552387e+18,2.0588635711,2.00012571715,9.768461380100002
1.7177168257552387e+18,1.321190071115,3.1514041214,8.777537017749998
1.7177168259552387e+18,0.94775413508,4.56412884525,7.60596830745
1.7177168261552387e+18,0.5235138473600001,5.3963457413,7.0030670472
1.7177168263552387e+18,0.72021979519,4.76729386145,7.3311547851
1.7177168265552387e+18,0.8272472305,3.3264575958,8.71020703115
1.7177168267552387e+18,1.9599528285714283,2.1502570887142856,9.940813684904763
1.7177168269552387e+18,1.9412381744,1.4136153718000002,10.09814330285
1.7177168271552387e+18,2.1653596116,1.24918979635,10.9202487265
1.7177168273552387e+18,1.9069370041,1.6647107162,10.67389851335
1.7177168275552387e+18,1.62470640565,2.03276534275,9.280663261499999
1.7177168277552387e+18,1.3682821426599998,3.1818433227500007,8.795267646750002
1.7177168279552387e+18,1.02794238276,4.5817921142,7.1221294555
1.7177168281552387e+18,0.774347236636,5.464484047,7.2814805832000005
1.7177168283552387e+18,0.7183989388719048,4.628924102809524,7.40535762242857
1.7177168285552387e+18,1.38805602266,2.9109666138499994,8.998814369249999
1.7177168287552387e+18,1.2830344161700002,1.6432977447500001,10.0167051546
1.7177168289552387e+18,0.9486822051200001,1.1450513534550002,9.998443130350001
1.7177168291552387e+18,-0.03293900299280001,0.504802757255,9.45003604885
1.7177168293552387e+18,0.08961863707835001,-0.26742638397949997,11.04095022465
1.7177168295552387e+18,-0.125880729676,0.01154848480335,9.8765590894
1.7177168297552387e+18,-0.008767482215238095,0.0309641810862381,9.823785618333332
1.7177168299552387e+18,-0.262007652285,0.08366851043555,9.80783699795
1.7177168301552387e+18,0.04941973114150001,-0.10600955200150002,9.76588673385
1.7177168303552387e+18,-0.37913159178499994,-0.07438780974774997,9.816406677149999
1.7177168305552387e+18,0.16071329497200001,0.05451663208055,9.804745925849998
1.7177168307552387e+18,0.4907619552680001,-0.05442681884459999,9.778400710900002
1.7177168309552387e+18,-0.062255538935,0.1167796554585,9.762204391450002
1.7177168311552387e+18,0.0024548950147499993,0.030783485412459993,9.7929429703
1.7177168313552387e+18,0.025632411414761903,0.17975476944952382,9.742910940904762
1.7177168315552387e+18,0.05938899994,0.25596022796,9.763903358400002
1.7177168317552387e+18,0.14334940339,0.2866464157,9.78606477355
1.7177168319552387e+18,0.0831895065345,0.328267364505,9.78643151095
1.7177168321552387e+18,0.1356928253175,0.3443514175349999,9.767039337199998
1.7177168323552387e+18,0.11687695311700001,0.34512979888500006,9.773011917149997
1.7177168325552387e+18,0.1264270935115,0.355308631905,9.77074413295
1.7177168327552387e+18,0.11070550100238094,0.3635083661761905,9.764851030619047
1.7177168329552387e+18,0.13971945190599996,0.35833982849,9.7742842712
1.7177168331552387e+18,0.15334112549500004,0.33193473816,9.769793609649998
1.7177168333552387e+18,0.16168627168,0.33199461364,9.79503112795
1.7177168335552387e+18,0.150362319945,0.34163456726,9.777839378349999
1.7177168337552387e+18,0.163392723085,0.36044295501499996,9.76147840115
1.7177168339552387e+18,0.156574401855,0.38035155486,9.79621366895
1.7177168341552387e+18,0.18051711273349996,0.35367702484499997,9.684897651650001
1.7177168343552387e+18,0.1660760716095238,0.3229284668047619,9.791467110761904
1.7177168345552387e+18,0.148236740115,0.32058084869000003,9.789754600450001
1.7177168347552387e+18,0.181445182805,0.32677047730000003,9.772001518249999
1.7177168349552387e+18,0.15904426574,0.33855846405,9.766066360449999
1.7177168351552387e+18,0.14694941711600001,0.33168026734,9.778468070949998
1.7177168353552387e+18,0.17182019805499998,0.33760794069,9.79060034175
1.7177168355552387e+18,0.17455950164499998,0.36060012816000003,9.76619359585
1.7177168357552387e+18,0.17490770612857143,0.37326664515714286,9.766198229095236
1.7177168359552387e+18,0.17346677398500002,0.38211788178,9.771732078600001
1.7177168361552387e+18,0.17762812041500003,0.429606628415,9.767675514299999
1.7177168363552387e+18,0.22788610838499998,0.442195449835,9.7472953949
1.7177168365552387e+18,0.202491416925,0.44366988372,9.761792747449999
1.7177168367552387e+18,0.21133802030999999,0.43208397674,9.7672638703
1.7177168369552387e+18,0.20437749481000003,0.43745031738,9.770789039699999
1.7177168371552387e+18,0.23406076812499998,0.44382705688,9.7662834091
1.7177168373552387e+18,0.22893107822380948,0.4379606846380951,9.761679055333335
1.7177168375552387e+18,0.229315635685,0.4339925079450001,9.77285474395
1.7177168377552387e+18,0.23720423126,0.43218875885,9.77026512905
1.7177168379552387e+18,0.23339465331500003,0.43070684051499997,9.764666771049999
1.7177168381552387e+18,0.22489981841499995,0.42453218077,9.7643374557
1.7177168383552387e+18,0.22070104979500002,0.41289388275,9.779830238299999
1.7177168385552387e+18,0.20794757079500004,0.42415795899,9.7681320648
1.7177168387552387e+18,0.20435361589523807,0.4407548740904762,9.760852203428572
1.7177168389552387e+18,0.184528770445,0.43280996704499997,9.765422699050003
1.7177168391552387e+18,0.190643554685,0.45688739777,9.7777345962
1.7177168393552387e+18,0.17656533051,0.4730013885399999,9.763746185250001
1.7177168395552387e+18,0.18205890655,0.49163763426999996,9.7504313737
1.7177168397552387e+18,0.18862275696,0.49548463440500007,9.752646766649999
1.7177168399552387e+18,0.19261196135999997,0.4878879318199999,9.768371566749998
1.7177168401552387e+18,0.19413201467619046,0.48983851840476184,9.762484523238095
1.7177168403552387e+18,0.18468594359999999,0.4860168228200001,9.75479479975
1.7177168405552387e+18,0.19381695557,0.4703968048149999,9.77088633725
1.7177168407552387e+18,0.182320861825,0.46866790009,9.77048217775
1.7177168409552387e+18,0.180861396785,0.4641996917749999,9.757998138450002
1.7177168411552387e+18,0.183630638125,0.44762915039000006,9.768835601949998
1.7177168413552387e+18,0.17878072356500002,0.43349105072,9.779949989300002
1.7177168415552387e+18,0.166034729005,0.43447899628500003,9.7724431
1.7177168417552387e+18,0.14941072735714286,0.442864772252381,9.773276367190476
1.7177168419552387e+18,0.147772705065,0.44985951232500004,9.768147033599998
1.7177168421552387e+18,0.14790742492499998,0.454522315975,9.769404418899999
1.7177168423552387e+18,0.15456857299,0.4741988983099999,9.775107559250001
1.7177168425552387e+18,0.15606546020999998,0.48767836760999994,9.7696139831
1.7177168427552387e+18,0.15581098938000001,0.516081802365,9.7681769714
1.7177168429552387e+18,0.16336278535,0.526477684015,9.749398521449999
1.7177168431552387e+18,0.15454291207142856,0.5346310860666668,9.75320382252381
1.7177168433552387e+18,0.16312328339,0.52876792146,9.761478401149997
1.7177168435552387e+18,0.165046783455,0.5247188415549999,9.7615008545
1.7177168437552387e+18,0.16783099364499998,0.508163269045,9.76087216195
1.7177168439552387e+18,0.17335450744500003,0.494638893125,9.7701453781
1.7177168441552387e+18,0.169170707715,0.48875612640499994,9.761957405050001
1.7177168443552387e+18,0.17300273895,0.4758155365,9.7733487168
1.7177168445552387e+18,0.16721726990000002,0.4610487442,9.7685437088
1.7177168447552387e+18,0.16787946429523806,0.44992865425714285,9.772328338571427
1.7177168449552387e+18,0.15590080262,0.44310106660000004,9.76805722045
1.7177168451552387e+18,0.168497108455,0.44328817749000005,9.771380310000001
1.7177168453552387e+18,0.15988252258000002,0.4403842163049999,9.7713728256
1.7177168455552387e+18,0.162210182185,0.44583288575499996,9.7763649445
1.7177168457552387e+18,0.16108003235499999,0.4608541488649999,9.768828117400002
1.7177168459552387e+18,0.15541431427500002,0.4824542312599999,9.76825930035
1.7177168461552387e+18,0.1667175946857143,0.504593549457143,9.761814487857142
1.7177168463552387e+18,0.16219521331500003,0.5184543685849999,9.76793746955
1.7177168465552387e+18,0.16831748199500002,0.5412145385750001,9.767638091999999
1.7177168467552387e+18,0.16479979706,0.566579292295,9.76249628445
1.7177168469552387e+18,0.18312169646499998,0.5840554504450001,9.733546485899996
1.7177168471552387e+18,0.17468673705999999,0.5797069931050001,9.75240726475
1.7177168473552387e+18,0.1794094162,0.57271652985,9.75770624545
1.7177168475552387e+18,0.17634079743000003,0.564917747495,9.764053047099999
1.7177168477552387e+18,0.16934783936190478,0.5432346234904761,9.76428791595238
1.7177168479552387e+18,0.16227005767000002,0.5277201004000001,9.773206512400002
1.7177168481552387e+18,0.163886695855,0.5156252517699998,9.76459192655
1.7177168483552387e+18,0.16113242339500003,0.50978739166,9.7637836074
1.7177168485552387e+18,0.15822097779,0.49615823364,9.7665229109
1.7177168487552387e+18,0.162868812555,0.48780560303,9.777038543699998
1.7177168489552387e+18,0.15569123841,0.49741561889000013,9.7572422103
1.7177168491552387e+18,0.15769350324761902,0.49543402537142855,9.766020028238094
1.7177168493552387e+18,0.16408877562499996,0.49323181915000003,9.768513770950001
1.7177168495552387e+18,0.16395405579,0.496929130545,9.772839775
1.7177168497552387e+18,0.161783569345,0.50705557251,9.768236847
1.7177168499552387e+18,0.16054115296,0.519539611815,9.76904516605
1.7177168501552387e+18,0.158655075065,0.53367771148,9.762316658
1.7177168503552387e+18,0.16470998381999996,0.5486316146800001,9.7656996232
1.7177168505552387e+18,0.163422660825,0.5686075744500001,9.75199562065
1.7177168507552387e+18,0.16612596783809527,0.5806354195666669,9.740344848619047
1.7177168509552387e+18,0.16392411804499998,0.5683680725000001,9.76245137775
1.7177168511552387e+18,0.17120647429999997,0.5625526657150001,9.761845138450001
1.7177168513552387e+18,0.160765686045,0.557620422365,9.759292945950001
1.7177168515552387e+18,0.17472415923,0.548945961,9.758686706549998
1.7177168517552387e+18,0.15378270722,0.5234165496750001,9.7725403976
1.7177168519552387e+18,0.16524886323,0.5181325378399999,9.76938945015
1.7177168521552387e+18,0.1523260934,0.5199758475142857,9.75986853452381
1.7177168523552387e+18,0.162053009025,0.516418601985,9.762601066699998
1.7177168525552387e+18,0.15481555938,0.505566169745,9.779703002949999
1.7177168527552387e+18,0.15518229675,0.50918115234,9.770691741849998
1.7177168529552387e+18,0.15882721709,0.5211113433900001,9.76322227485
1.7177168531552387e+18,0.16431330872,0.5315671005199999,9.760348251300002
1.7177168533552387e+18,0.145684547415,0.535174598685,9.77047469315
1.7177168535552387e+18,0.151844238285,0.55646033479,9.762750755199999
1.7177168537552387e+18,0.1416554260238095,0.5697580392,9.751357661714287
1.7177168539552387e+18,0.159852584835,0.574632545475,9.747909118649998
1.7177168541552387e+18,0.14535523224500002,0.560142677305,9.762586097749999
1.7177168543552387e+18,0.15438146208999998,0.55330190278,9.7652206192
1.7177168545552387e+18,0.149351921075,0.55352643585,9.7593378525
1.7177168547552387e+18,0.15051949310999999,0.5454582137949999,9.757556556699999
1.7177168549552387e+18,0.14313235473500002,0.52795960236,9.769105041449999
1.7177168551552387e+18,0.14271750313333334,0.5256640188952381,9.765620858380952
1.7177168553552387e+18,0.13674064635500002,0.527315940865,9.76697197715
1.7177168555552387e+18,0.13799054718499998,0.5224735107449999,9.76496614825
1.7177168557552387e+18,0.12907658386000004,0.5162464599599998,9.774883026100001
1.7177168559552387e+18,0.13258678437,0.523154594405,9.7718368607
1.7177168561552387e+18,0.13748908998499998,0.539298522955,9.76552748115
1.7177168563552387e+18,0.13763129425499998,0.5488636322,9.754637626649998
1.7177168565552387e+18,0.13488379342857143,0.5586525617380954,9.764487500857143
1.7177168567552387e+18,0.1359173584,0.575568099975,9.75486964405
1.7177168569552387e+18,0.14011612701499998,0.5867049408,9.74168955245
1.7177168571552387e+18,0.13427826690500003,0.574812171945,9.76287799085
1.7177168573552387e+18,0.14588662719000003,0.569737724305,9.762623519849999
1.7177168575552387e+18,0.137533996575,0.56727534484,9.759697105350002
1.7177168577552387e+18,0.15041471098999998,0.56137012481,9.75326797495
1.7177168579552387e+18,0.132414642335,0.54289105225,9.770092987149999
1.7177168581552387e+18,0.14045791625238097,0.537304098947619,9.76576341895238
1.7177168583552387e+18,0.1313293991,0.531649429325,9.76490627275
1.7177168585552387e+18,0.14631324005500002,0.532330513005,9.762728302000001
1.7177168587552387e+18,0.136553535465,0.51638866425,9.77075161755
1.7177168589552387e+18,0.1438957672,0.5177283783050002,9.7756165009
1.7177168591552387e+18,0.128230842585,0.52685190583,9.771170745900001
1.7177168593552387e+18,0.140669975285,0.529740898125,9.764906272899998
1.7177168595552387e+18,0.12531797135809525,0.5415025111619046,9.770353873190478
1.7177168597552387e+18,0.13061837769,0.55265824126,9.765826858550001
1.7177168599552387e+18,0.12159214781950001,0.5694383468499999,9.760490455649999
1.7177168601552387e+18,0.133058303845,0.580185997005,9.760063842700003
1.7177168603552387e+18,0.12435390473499999,0.5823789367650001,9.756815597550002
1.7177168605552387e+18,0.12570858765,0.595304557805,9.74427168275
1.7177168607552387e+18,0.12033476257,0.586248390205,9.75338772585
1.7177168609552387e+18,0.13505664825,0.579325286865,9.754158622750001
1.7177168611552387e+18,0.12566724505714286,0.5673273794952381,9.768051518047619
1.7177168613552387e+18,0.12949571227499998,0.5599256286700001,9.761643058749998
1.7177168615552387e+18,0.13210029602,0.554828727725,9.7600114517
1.7177168617552387e+18,0.11758797455,0.53971765137,9.76712166605
1.7177168619552387e+18,0.11380833434399999,0.535212020875,9.770167831399998
1.7177168621552387e+18,0.11566447449949999,0.531439865115,9.7606476287
1.7177168623552387e+18,0.12356803894300002,0.53095337677,9.7596072921
1.7177168625552387e+18,0.11189588274380952,0.5200257437619046,9.773397543761904
1.7177168627552387e+18,0.13118719483000002,0.5321583709750001,9.760385673550001
1.7177168629552387e+18,0.11862082672050003,0.526500137345,9.76250376885
1.7177168631552387e+18,0.1252370681795,0.5267620925900001,9.758035560599998
1.7177168633552387e+18,0.12542417907050002,0.52230885313,9.770265129150001
1.7177168635552387e+18,0.11033555602400003,0.5206024017349999,9.759607292150001
1.7177168637552387e+18,0.11500584411349998,0.5223836975099999,9.769973236050001
1.7177168639552387e+18,0.1052910461335,0.5204527130099998,9.77046720895
1.7177168641552387e+18,0.11983651297428571,0.5291068594761905,9.771080932523809
1.7177168643552387e+18,0.1081875228895,0.55419255067,9.759809371849999
1.7177168645552387e+18,0.11749067688749999,0.5667888564949999,9.7605727844
1.7177168647552387e+18,0.1171688461365,0.583943183905,9.7645545043
1.7177168649552387e+18,0.12400962067149998,0.608020614615,9.75461517335
1.7177168651552387e+18,0.12286450196000001,0.6241645431499999,9.73130115515
1.7177168653552387e+18,0.124436233515,0.610438087475,9.7587016755
1.7177168655552387e+18,0.1319684273952381,0.6058686610761905,9.761785975761903
1.7177168657552387e+18,0.122505249035,0.5988222427300001,9.7565835801
1.7177168659552387e+18,0.13513897705,0.5835465088,9.75787838745
1.7177168661552387e+18,0.12422666931,0.5645659790149999,9.769920845
1.7177168663552387e+18,0.13156141662,0.551558029175,9.768723335250002
1.7177168665552387e+18,0.12866493988000002,0.5419704666099999,9.7676530609
1.7177168667552387e+18,0.13034145356000001,0.543235336305,9.760228500350001
1.7177168669552387e+18,0.1239946518,0.531933837895,9.7642177047
1.7177168671552387e+18,0.13135541643333332,0.5362420218428572,9.764658573666667
1.7177168673552387e+18,0.11793225861749998,0.538467750555,9.771043510450003
1.7177168675552387e+18,0.11355386352299998,0.5365667037949999,9.767495887699999
1.7177168677552387e+18,0.11833641815,0.5488935699450002,9.767039337149999
1.7177168679552387e+18,0.12166699217999999,0.56294934082,9.761051788349999
1.7177168681552387e+18,0.12528945923749998,0.578719047555,9.756875473000001
1.7177168683552387e+18,0.1164353714,0.58778269959,9.766208564699998
1.7177168685552387e+18,0.13069963727619047,0.6098603602904763,9.757302442476192
1.7177168687552387e+18,0.12696597290499997,0.630002403255,9.736802215649998
1.7177168689552387e+18,0.13742173004499997,0.618917953485,9.753073379549999
1.7177168691552387e+18,0.12837304686999998,0.6073320465100001,9.7571598816
1.7177168693552387e+18,0.13119467926,0.5983731765850001,9.760123718249998
1.7177168695552387e+18,0.12792398071000002,0.58907002257,9.762915412899998
1.7177168697552387e+18,0.12874726868000003,0.57217016603,9.760101265
1.7177168699552387e+18,0.12439881133900002,0.55939423371,9.768371566750002
1.7177168701552387e+18,0.12303700037619046,0.5546109662714285,9.762905077190478
1.7177168703552387e+18,0.12421918487500001,0.5526283035299999,9.767450981100001
1.7177168705552387e+18,0.11922706603649999,0.542868598945,9.775930847200001
1.7177168707552387e+18,0.12472064208999997,0.556722290035,9.772922104000001
1.7177168709552387e+18,0.11852352904999999,0.573315284745,9.761440979049999
1.7177168711552387e+18,0.127654541005,0.589317008975,9.759382759100001
1.7177168713552387e+18,0.12235556030449998,0.6004987564100001,9.760318313549998
1.7177168715552387e+18,0.1283972821857143,0.6180005754761906,9.758421543666667
1.7177168717552387e+18,0.13093272400999997,0.63381198121,9.73098680875
1.7177168719552387e+18,0.1388886795,0.6224356384349999,9.746045494099999
1.7177168721552387e+18,0.12747491455999999,0.60890377808,9.75768379215
1.7177168723552387e+18,0.13498928832999998,0.597789390565,9.75862683105
1.7177168725552387e+18,0.13656850433999998,0.58893530273,9.75471247095
1.7177168727552387e+18,0.12501253508500004,0.57418347931,9.76346177675
1.7177168729552387e+18,0.1302719552142857,0.5590659877190477,9.76656888690476
1.7177168731552387e+18,0.12445120237400001,0.54612432861,9.76397820285
1.7177168733552387e+18,0.1362915802,0.5403912506049999,9.7637985763
1.7177168735552387e+18,0.126344764705,0.5362224197300001,9.76619359585
1.7177168737552387e+18,0.13036390685000004,0.538580017095,9.7790668258
1.7177168739552387e+18,0.12540172576500003,0.5480478286650001,9.76436739345
1.7177168741552387e+18,0.131800918575,0.5598208465549999,9.7571224594
1.7177168743552387e+18,0.11896511077550001,0.56726786042,9.7630725859
1.7177168745552387e+18,0.1235858590190476,0.5856891959095238,9.763347015428572
1.7177168747552387e+18,0.12088861085,0.59827587891,9.75797568505
1.7177168749552387e+18,0.14260844421500002,0.6222634964000001,9.7521977004
1.7177168751552387e+18,0.173923324585,0.5525759124649999,9.732835464499999
1.7177168753552387e+18,0.170196075445,0.47487249755,9.756224327
1.7177168755552387e+18,0.22646406556,0.47625711821999994,9.7768289795
1.7177168757552387e+18,0.163115798959,0.38685552979000004,9.759090866149998
1.7177168759552387e+18,0.2188306536,0.40011795044285714,9.764865286761903
1.7177168761552387e+18,0.20199744416,0.385298767085,9.748897064149999
1.7177168763552387e+18,0.24157514191,0.27260561372000003,9.793721351650003
1.7177168765552387e+18,0.182066390994,0.17153578949849999,9.789088485750002
1.7177168767552387e+18,0.14237642669800002,0.182732505805,9.778715057400001
1.7177168769552387e+18,0.579332771305,0.0806597671505,9.77588594045
1.7177168771552387e+18,0.13547577667000002,0.189258934015,9.760692535299999
1.7177168773552387e+18,-0.08702153778645003,0.098861915587,9.750902893100001
1.7177168775552387e+18,0.10686349050809525,0.07790941510971428,9.78152350295238
1.7177168777552387e+18,0.0141231307956,0.0286803588868,9.762728302000001
1.7177168779552387e+18,0.0539478149404,0.052121612548349995,9.777599876499998
1.7177168781552387e+18,-0.02042502594,0.0005239105238349997,9.789051063550001
1.7177168783552387e+18,-0.06634204101935,-0.022206321718600004,9.770212738000001
1.7177168785552387e+18,-0.1349144439645,-0.024361839295,9.795397865350001
1.7177168787552387e+18,-0.10023156738199998,-0.06910379791665001,9.792523841849999
1.7177168789552387e+18,-0.3089290073904762,-0.06883542741819049,9.780411529476192
1.7177168791552387e+18,-0.273885452272535,-0.056979011541585,9.79577208705
1.7177168793552387e+18,-0.0703911209097,-0.056851776127350005,9.750536155799997
1.7177168795552387e+18,-0.31204859162109994,-0.01915267181395,9.74830579375
1.7177168797552387e+18,-0.071199440003895,-0.09824070740015,9.7715150299
1.7177168799552387e+18,-0.28938571929199997,-0.0694855041494,9.764876335149998
1.7177168801552387e+18,0.061626846314499995,-0.12964540099625002,9.81977467345
1.7177168803552387e+18,-0.30605355835,-0.0034278717056999987,9.7638135452
1.7177168805552387e+18,-0.29708221436190474,-0.025988813128809525,9.789143371619048
1.7177168807552387e+18,-0.313433212275,-0.06158193970339999,9.7972315522
1.7177168809552387e+18,-0.195021949763,0.0672326889065,9.759794403150002
1.7177168811552387e+18,-0.12988490295344998,0.07808512115199999,9.797688102699999
1.7177168813552387e+18,-0.42757086181500004,-0.0973276062,9.741135703950002
1.7177168815552387e+18,-0.09806108092649998,0.12855267333,9.7535972901
1.7177168817552387e+18,-0.12237801361100001,0.004266128540100001,9.79445482635
1.7177168819552387e+18,-0.2680711146809524,0.007548588345047619,9.770981140095238
1.7177168821552387e+18,-0.17041312409499998,-0.010059082031,9.779388656750001
1.7177168823552387e+18,-0.1690060501075,-0.042766067505299994,9.7707890397
1.7177168825552387e+18,-0.25892406464,0.011451187134000002,9.779800300649999
1.7177168827552387e+18,0.026899063110175002,0.04928501128994999,9.814483177249999
1.7177168829552387e+18,-0.001077758789500001,-0.00962498474355,9.778565368699999
1.7177168831552387e+18,-0.28619734954850007,-0.037347335814599994,9.77117823035
1.7177168833552387e+18,-0.29454249571499996,-0.040086639404,9.773992378250002
1.7177168835552387e+18,-0.17480791365238094,-0.051072365897142855,9.773547232476192
1.7177168837552387e+18,-0.26819728088500006,-0.042279579163,9.74880725105
1.7177168839552387e+18,-0.26353447723,-0.045093727111,9.78228513335
1.7177168841552387e+18,-0.24093148041,-0.061492126465,9.77474082185
1.7177168843552387e+18,-0.27033782958499997,-0.05244344329799999,9.7866410752
1.7177168845552387e+18,-0.30627809143499996,-0.068534980775,9.7659690627
1.7177168847552387e+18,-0.2989433441199999,-0.0584459609985,9.77577367405
1.7177168849552387e+18,-0.3325584411666666,-0.07331183297285715,9.773746817428574
1.7177168851552387e+18,-0.28979736329499994,-0.06734495544500001,9.788414886500002
1.7177168853552387e+18,-0.31911389924,-0.085195335387,9.780833152649999
1.7177168855552387e+18,-0.298471824655,-0.071176986694,9.7819034271
1.7177168857552387e+18,-0.30933922576999995,-0.0640967102045,9.775496749799998
1.7177168859552387e+18,-0.29079279328,-0.063610221866,9.7707366486
1.7177168861552387e+18,-0.32569271851,-0.053506233213,9.78127473455
1.7177168863552387e+18,-0.27557693481,-0.03973487091409001,9.749338646000002
1.7177168865552387e+18,-0.40038168771428573,-0.037080034528,9.763275735142859
1.7177168867552387e+18,-0.28007508087,-0.06455326080160001,9.7864389953
1.7177168869552387e+18,-0.33382830048000006,-0.0404758300788,9.7684089889
1.7177168871552387e+18,-0.262748611445,-0.056896682739000004,9.77575122065
1.7177168873552387e+18,-0.31334339904499997,-0.049689170838,9.77243561565
1.7177168875552387e+18,-0.28924351501,-0.07877368927100001,9.783295532199999
1.7177168877552387e+18,-0.28413164519999995,-0.0607062606795,9.784710090699999
1.7177168879552387e+18,-0.2737307739285714,-0.0580435834595238,9.780839211523809
1.7177168881552387e+18,-0.26652825164,-0.03912114715526,9.77771214305
1.7177168883552387e+18,-0.2838696899449999,-0.060908340453450005,9.77160484305
1.7177168885552387e+18,-0.267598526,0.0076640624982,9.7740148316
1.7177168887552387e+18,-0.1500105514447,-0.002582130428199999,9.763289634649999
1.7177168889552387e+18,-0.14829661560500002,-0.13809532928215001,9.83229613485
1.7177168891552387e+18,-0.34825829314749995,-0.1737736358675,10.3209774167
1.7177168893552387e+18,0.8581654358334999,1.2507540435150002,11.024821266
1.7177168895552387e+18,0.6719811793619047,3.0838014875238096,9.345701228476187
1.7177168897552387e+18,0.95851675414,3.9301222687,8.51383788305
1.7177168899552387e+18,0.7744445342949999,4.683340942400001,8.241845993000002
1.7177168901552387e+18,0.3276611251664999,5.165914924600001,7.30769107825
1.7177168903552387e+18,0.18923648071665003,5.7442223281,6.777456207249999
1.7177168905552387e+18,0.48537316129499997,5.4285363007,6.84435209655
1.7177168907552387e+18,0.6108871536065,3.9427485122499997,8.267480186449998
1.7177168909552387e+18,0.5186785452871427,2.368731340714286,10.185291007238096
1.7177168911552387e+18,0.5228926391544999,1.8875747681,11.3458362115
1.7177168913552387e+18,1.0977347488749998,2.1481079865000003,10.906978821249998
1.7177168915552387e+18,1.399769165,2.8980409927000004,9.302689957200002
1.7177168917552387e+18,1.4200894089,4.23604859155,7.982098640399999
1.7177168919552387e+18,1.062759979305,5.3277508851,7.2955438384
1.7177168921552387e+18,0.824485473615,5.418020668,6.90990078735
1.7177168923552387e+18,0.8316063799,5.092089516809524,6.810366341714287
1.7177168925552387e+18,1.228794708255,3.3275203857999998,9.047530563450003
1.7177168927552387e+18,1.1848011933150002,2.03114870445,10.002978698849999
1.7177168929552387e+18,1.1662397919249998,1.5783777465499997,10.747335800500002
1.7177168931552387e+18,1.5176265792499999,1.38725518815,11.114380028499998
1.7177168933552387e+18,1.02110160822,2.3903567275500004,10.071161911050002
1.7177168935552387e+18,1.282794914315,3.13121859755,9.223766578600001
1.7177168937552387e+18,1.14953453062,4.29111158755,8.146756233200001
1.7177168939552387e+18,0.8653362382809524,5.530926949619048,6.782310398619049
1.7177168941552387e+18,1.09855803689,5.434037361050001,6.547945976299999
1.7177168943552387e+18,0.9106837234650002,4.572855697699999,7.2194121551
1.7177168945552387e+18,1.26041645044,2.97971864325,9.5804224093
1.7177168947552387e+18,1.2420646133550002,2.0861443405,10.409151557
1.7177168949552387e+18,0.8344771957249998,1.9526968459999998,10.8335490185
1.7177168951552387e+18,1.233704498295,2.2098470993,10.907502732700001
1.7177168953552387e+18,1.5177010672857143,2.9469361006666666,9.843366328333333
1.7177168955552387e+18,0.8602610779300001,3.51888244625,8.33738481895
1.7177168957552387e+18,0.718169059755,5.3516935959000005,7.032091690100001
1.7177168959552387e+18,0.81657442481,5.3553310318,6.628815307649999
1.7177168961552387e+18,0.611306282045,4.7235697862500015,7.159364524900001
1.7177168963552387e+18,1.2211830368899999,3.1489716797000002,9.157484413150002
1.7177168965552387e+18,1.7374968567,1.9859726485499998,10.4444032527
1.7177168967552387e+18,1.7303267670000004,1.6507297898000002,10.2870804061
1.7177168969552387e+18,1.3556452070142857,2.0398438372380947,10.935245753809523
1.7177168971552387e+18,1.52981872565,2.5311913604000003,9.928822906299999
1.7177168973552387e+18,1.37934413915,3.1208825912,8.90858949295
1.7177168975552387e+18,1.206483604345,4.47906822965,7.691627678000001
1.7177168977552387e+18,0.8010067978450002,5.13974933625,7.1035755386999995
1.7177168979552387e+18,0.769003349285,4.81474518595,7.488342910599999
1.7177168981552387e+18,0.9735080795700002,4.090850532549998,8.076649520950001
1.7177168983552387e+18,0.9958719308333335,2.7847519357619053,9.783633400571428
1.7177168985552387e+18,0.956009468095,2.2302122497500005,9.2472003481
1.7177168987552387e+18,1.540281967105,1.7983078994,9.288342292800001
1.7177168989552387e+18,1.5660733337959996,0.09892927551700004,11.318877274
1.7177168991552387e+18,0.17334702305150002,-0.08819659423250001,9.73926459475
1.7177168993552387e+18,0.0340616684005,0.23659050750349997,9.83395019515
1.7177168995552387e+18,0.0371976470985,0.02127825164705,9.75647879785
1.7177168997552387e+18,-0.26415568542400003,0.20043319702136003,9.782988670449999
1.7177168999552387e+18,0.21672075543761904,-0.3437351989761905,9.844556710142857
1.7177169001552387e+18,-0.22727986907999997,-0.051732421874314996,9.7807134018
1.7177169003552387e+18,0.055182746889,-0.028171417232350005,9.7503714982
1.7177169005552387e+18,-0.21246817016250003,0.0216075668312,9.758035560599998
1.7177169007552387e+18,-0.10166109466856998,0.09352551269500001,9.808780036950001
1.7177169009552387e+18,-0.0179102554321,0.179836029055,9.8010560989
1.7177169011552387e+18,-0.0479902038584,0.24370072172499996,9.760812286250001
1.7177169013552387e+18,0.03401497977080953,0.3012022181952381,9.761215733142857
1.7177169015552387e+18,0.008764274597950001,0.31382988739999995,9.78750926975
1.7177169017552387e+18,0.05219645690949999,0.319315978995,9.791109283450002
1.7177169019552387e+18,0.034181419373000003,0.361445869455,9.7762901001
1.7177169021552387e+18,0.05791456604049999,0.414323410045,9.7432837373
1.7177169023552387e+18,0.10931767272449999,0.40967557526,9.757751151899999
1.7177169025552387e+18,0.10650352478399998,0.408814865115,9.771455154400002
1.7177169027552387e+18,0.14049034881949998,0.412093048105,9.747549865699998
1.7177169029552387e+18,0.08986312866238096,0.40855754306666664,9.770261208666666
1.7177169031552387e+18,0.104288131718,0.37547918701,9.77486805725
1.7177169033552387e+18,0.1011596374515,0.381975677485,9.768843086150001
1.7177169035552387e+18,0.107895629882,0.368788101195,9.78506185905
1.7177169037552387e+18,0.09937085724050002,0.364424675,9.784912170450001
1.7177169039552387e+18,0.0853001174945,0.381204780575,9.775002777000001
1.7177169041552387e+18,0.13944252778350003,0.39573207092999996,9.76996575165
1.7177169043552387e+18,0.10429739816428574,0.4175816345190476,9.765706394666667
1.7177169045552387e+18,0.168968627935,0.41859702300999996,9.76414286035
1.7177169047552387e+18,0.11255094910299998,0.4354370041,9.7651981659
1.7177169049552387e+18,0.133417556765,0.454978866585,9.7414725036
1.7177169051552387e+18,0.13330529021499998,0.45067531585000004,9.76790753175
1.7177169053552387e+18,0.13090278626500002,0.452763473505,9.772293411300002
1.7177169055552387e+18,0.12945829010499998,0.447958465585,9.759330368
1.7177169057552387e+18,0.13535602569050004,0.43187441255000003,9.760542846700002
1.7177169059552387e+18,0.13111306327142855,0.4101185825904762,9.77676197595238
1.7177169061552387e+18,0.13767620087,0.39348674010499995,9.77816869355
1.7177169063552387e+18,0.15623011779999998,0.38943766022000004,9.761104179400002
1.7177169065552387e+18,0.151619705205,0.38161642455,9.776836463899999
1.7177169067552387e+18,0.17104181671,0.3695589980999999,9.772016487150001
1.7177169069552387e+18,0.161461738595,0.361124038695,9.783550003
1.7177169071552387e+18,0.18801651764,0.38722226715499997,9.771425216649998
1.7177169073552387e+18,0.17717442104761905,0.4041524178714286,9.772734636523811
1.7177169075552387e+18,0.19668349455500006,0.44198588561499996,9.762578613399999
1.7177169077552387e+18,0.19559076691,0.47263465118000003,9.75841726685
1.7177169079552387e+18,0.2084041214,0.4874388656549999,9.765886734
1.7177169081552387e+18,0.23674768067000002,0.538827003485,9.752272544749998
1.7177169083552387e+18,0.24980802153999998,0.557994644165,9.742954422050001
1.7177169085552387e+18,0.25193360138500004,0.552950134275,9.7452521439
1.7177169087552387e+18,0.24531842912857135,0.5372399466380953,9.773946402380952
1.7177169089552387e+18,0.251716552745,0.536589157105,9.763648887599999
1.7177169091552387e+18,0.24156765747000003,0.53978501129,9.7495332412
1.7177169093552387e+18,0.23582709503500002,0.541888137815,9.7670692749
1.7177169095552387e+18,0.22966740417000003,0.54633389281,9.759480056849998
1.7177169097552387e+18,0.23043081665000004,0.54571268462,9.752437202500001
1.7177169099552387e+18,0.23971151733,0.5436544647249998,9.758963630650001
1.7177169101552387e+18,0.22626947021499996,0.5329592056249999,9.754555297900001
1.7177169103552387e+18,0.2313759939952381,0.5296842302619048,9.766212485095238
1.7177169105552387e+18,0.23781047058,0.53889436339,9.757728698700001
1.7177169107552387e+18,0.224592956535,0.539313491825,9.746584373500001
1.7177169109552387e+18,0.20675006103500002,0.540975036625,9.7512995681
1.7177169111552387e+18,0.19861447905500001,0.5394482116699999,9.779635642950002
1.7177169113552387e+18,0.202289337155,0.553114791875,9.756778175200001
1.7177169115552387e+18,0.20827688598,0.5489235077000001,9.762241813600001
1.7177169117552387e+18,0.17923442295714287,0.5584030805285716,9.768415047857145
1.7177169119552387e+18,0.19390676879999996,0.556490272535,9.74246044925
1.7177169121552387e+18,0.190396568295,0.543871513365,9.7588738175
1.7177169123552387e+18,0.19236497498,0.5379363555999999,9.7565835801
1.7177169125552387e+18,0.18717077635999999,0.5233417053250001,9.787958335899999
1.7177169127552387e+18,0.18134788513,0.54327275848,9.759562385650002
1.7177169129552387e+18,0.18042729950499997,0.5561310195849999,9.756463829
1.7177169131552387e+18,0.17779277801499999,0.55766532897,9.764135375950001
1.7177169133552387e+18,0.1744229997904762,0.5747690473380952,9.76328286304762
1.7177169135552387e+18,0.17293537902500003,0.5928870849600001,9.729662063700001
1.7177169137552387e+18,0.19082318116,0.59018520355,9.7542933427
1.7177169139552387e+18,0.19339034271000002,0.59058187866,9.7625711289
1.7177169141552387e+18,0.190433990485,0.5792354736300002,9.7469585952
1.7177169143552387e+18,0.16441809081499997,0.5651198272650001,9.757930778550001
1.7177169145552387e+18,0.167845962525,0.54216506195,9.7624064713
1.7177169147552387e+18,0.17078057425714288,0.5233117675809525,9.766126948809523
1.7177169149552387e+18,0.15057188416000003,0.49805179596000004,9.7654376678
1.7177169151552387e+18,0.15144007874000004,0.4765041046249999,9.759794403099999
1.7177169153552387e+18,0.14066249084,0.46425956727000006,9.77706099705
1.7177169155552387e+18,0.15056439970499996,0.46459636688000006,9.771874282849998
1.7177169157552387e+18,0.138776412965,0.4761523361149999,9.775227310050001
1.7177169159552387e+18,0.14212195587500004,0.48388375855500004,9.7653553391
1.7177169161552387e+18,0.13421090697,0.4944742355300001,9.7712306213
1.7177169163552387e+18,0.13593161446666666,0.5106595066619046,9.76733871457143
1.7177169165552387e+18,0.13802048491500002,0.52968102264,9.7675482787
1.7177169167552387e+18,0.15748750304500003,0.5577626266500001,9.74756483455
1.7177169169552387e+18,0.156581886285,0.5728886718649999,9.7404471359
1.7177169171552387e+18,0.159193954465,0.567963912965,9.748245918299999
1.7177169173552387e+18,0.17613123322500002,0.5685327301,9.75104509745
1.7177169175552387e+18,0.16154406739,0.5548661499000002,9.768072189349999
1.7177169177552387e+18,0.16615447998095237,0.5459147644,9.76013227190476
1.7177169179552387e+18,0.14656022644,0.5402864685100001,9.759233070400002
1.7177169181552387e+18,0.15996485138,0.533011596685,9.7613586502
1.7177169183552387e+18,0.139128181465,0.5204003219550001,9.7726975708
1.7177169185552387e+18,0.159448425295,0.518484306325,9.767855140700002
1.7177169187552387e+18,0.14074481964500002,0.5319937133750001,9.766455551149999
1.7177169189552387e+18,0.142660835255,0.538692283635,9.768094642600001
1.7177169191552387e+18,0.14297518159,0.5466781768750001,9.76691958615
1.7177169193552387e+18,0.1488333565904762,0.5615180315238095,9.76202832914286
1.7177169195552387e+18,0.14321468353,0.5846092987,9.7587390975
1.7177169197552387e+18,0.15239808656000003,0.5906716919000001,9.75343263235
1.7177169199552387e+18,0.147121559135,0.59873991394,9.751067550749998
1.7177169201552387e+18,0.15612533569500003,0.610026443485,9.73308993535
1.7177169203552387e+18,0.156746543895,0.605341186525,9.7456263656
1.7177169205552387e+18,0.15604300688999997,0.594107048035,9.762256782450002
1.7177169207552387e+18,0.15693793159523808,0.5883622087761906,9.76668293542857
1.7177169209552387e+18,0.147870002755,0.586532798765,9.75306589515
1.7177169211552387e+18,0.138506973275,0.57436310578,9.751898323000002
1.7177169213552387e+18,0.12395722962,0.5562582549949999,9.762952835050003
1.7177169215552387e+18,0.12380005646299999,0.54036131286,9.764532051100002
1.7177169217552387e+18,0.128148513795,0.532435295105,9.76725638585
1.7177169219552387e+18,0.121000877374,0.52755544281,9.7579083252
1.7177169221552387e+18,0.12343331909500002,0.5196069717349999,9.773640609800001
1.7177169223552387e+18,0.13298060824761906,0.5316087995095239,9.764843902571428
1.7177169225552387e+18,0.1239946518015,0.549282760615,9.758349906949999
1.7177169227552387e+18,0.12307406616500001,0.556557632445,9.7634243545
1.7177169229552387e+18,0.1275422744575,0.5735398178049999,9.763686309750002
1.7177169231552387e+18,0.1288595352075,0.5900205459650001,9.749151535049998
1.7177169233552387e+18,0.13763129426,0.59805883026,9.729796783400001
1.7177169235552387e+18,0.144277473455,0.5839506683300001,9.7510151595
1.7177169237552387e+18,0.13692953927142856,0.5790316118523811,9.760153655999998
1.7177169239552387e+18,0.146522804255,0.570321510325,9.75870915995
1.7177169241552387e+18,0.145901596065,0.5659880218549999,9.757743667549999
1.7177169243552387e+18,0.14644795989999998,0.5531222763100001,9.764120407150001
1.7177169245552387e+18,0.12817096709500003,0.54515135193,9.7547124711
1.7177169247552387e+18,0.13715977478500002,0.53769685365,9.760902099650002
1.7177169249552387e+18,0.13474978637,0.52570678711,9.766388191299999
1.7177169251552387e+18,0.14316229248,0.52070718384,9.77951589205
1.7177169253552387e+18,0.13238185338095235,0.5345455496619047,9.764729854047618
1.7177169255552387e+18,0.13704750824000003,0.5496045913699998,9.7559923096
1.7177169257552387e+18,0.13050611115,0.558683212295,9.763626434399999
1.7177169259552387e+18,0.13378429412999998,0.57324044036,9.760542846749999
1.7177169261552387e+18,0.13162877654999997,0.57974441528,9.7537993698
1.7177169263552387e+18,0.1374292144735,0.588815551755,9.726585960400001
1.7177169265552387e+18,0.13335768127499997,0.581825088505,9.75795323185
1.7177169267552387e+18,0.14003736223333332,0.5760877336761904,9.757523411380953
1.7177169269552387e+18,0.149943191535,0.5746999053899999,9.75382182305
1.7177169271552387e+18,0.14254108429499998,0.5557792511,9.76928466805
1.7177169273552387e+18,0.14290033722999998,0.551625389095,9.762608550999998
1.7177169275552387e+18,0.13584251404999997,0.548863632195,9.75502681735
1.7177169277552387e+18,0.142121955875,0.5398299179099999,9.7572646638
1.7177169279552387e+18,0.13741424561499999,0.5298007736299999,9.76645555115
1.7177169281552387e+18,0.14354399872,0.5255121917900001,9.77114080805
1.7177169283552387e+18,0.13334413800952383,0.5300548880380953,9.766668679428571
1.7177169285552387e+18,0.136665802,0.54200788879,9.762997741700001
1.7177169287552387e+18,0.1369352417,0.5550532608000001,9.7639108429
1.7177169289552387e+18,0.13677058412000004,0.574849594115,9.7604904557
1.7177169291552387e+18,0.14146332550500001,0.5904247055,9.74850038905
1.7177169293552387e+18,0.14165043640500002,0.5967266006450002,9.7639033585
1.7177169295552387e+18,0.14462924194,0.6108422470050001,9.75742932125
1.7177169297552387e+18,0.14122061593809526,0.6153204345714286,9.738170798142859
1.7177169299552387e+18,0.15435900880000003,0.6224057006750001,9.72606953435
1.7177169301552387e+18,0.15273488617499997,0.61421024322,9.75554324335
1.7177169303552387e+18,0.15379767608499997,0.6016962661699999,9.759749496449999
1.7177169305552387e+18,0.149052543635,0.59049954987,9.75912080385
1.7177169307552387e+18,0.14803466033499998,0.57720719147,9.754637626600001
1.7177169309552387e+18,0.14260844421500002,0.5591397628649999,9.7651008683
1.7177169311552387e+18,0.14680899484285714,0.5485663931666667,9.761871512095237
1.7177169313552387e+18,0.149711174005,0.542651550295,9.76266842655
1.7177169315552387e+18,0.147039230345,0.53621493531,9.76200231165
1.7177169317552387e+18,0.150294960015,0.53480037689,9.7625337066
1.7177169319552387e+18,0.142443786615,0.53738999176,9.759786918700003
1.7177169321552387e+18,0.151440078735,0.5342315597449999,9.7574517746
1.7177169323552387e+18,0.13947246552,0.5271363143900001,9.774920448349999
1.7177169325552387e+18,0.140520286555,0.5399347000100001,9.76587176515
1.7177169327552387e+18,0.1393815830809524,0.5577401733238094,9.762441754904762
1.7177169329552387e+18,0.14115646362,0.5711373138400001,9.7570101929
1.7177169331552387e+18,0.13513897705000003,0.578606781005,9.761755325200001
1.7177169333552387e+18,0.14070739745500002,0.5903947677550001,9.756920379650001
1.7177169335552387e+18,0.13579012298999998,0.61081230926,9.72725207515
1.7177169337552387e+18,0.145751907355,0.5962326278850002,9.7521378249
1.7177169339552387e+18,0.14382092285,0.5925203476049999,9.7572796326
1.7177169341552387e+18,0.1448844255714286,0.5824887084904763,9.755228184238096
1.7177169343552387e+18,0.15252532196,0.576855422975,9.7529835663
1.7177169345552387e+18,0.135977233885,0.5569468231200001,9.766298377999998
1.7177169347552387e+18,0.146807212825,0.548594192515,9.76611875155
1.7177169349552387e+18,0.13920302581499996,0.54517380523,9.7623241425
1.7177169351552387e+18,0.14531032563,0.542015373225,9.75731705485
1.7177169353552387e+18,0.14117143250500003,0.5334232406649999,9.774920448249999
1.7177169355552387e+18,0.135041679385,0.54621414184,9.764172798199997
1.7177169357552387e+18,0.14008013043333337,0.5622593470904763,9.764872414666668
1.7177169359552387e+18,0.13754896545,0.5731132049600001,9.756104576
1.7177169361552387e+18,0.14254108428999995,0.5882617035,9.764359909099998
1.7177169363552387e+18,0.13855187988,0.604547836295,9.757825996399998
1.7177169365552387e+18,0.14582675171,0.6200705566399999,9.7415847702
1.7177169367552387e+18,0.13138179016499998,0.6189778289750001,9.742063774150001
1.7177169369552387e+18,0.14589411163000002,0.610213554385,9.75155403885
1.7177169371552387e+18,0.13889687673809525,0.6083135768428571,9.755940987714286
1.7177169373552387e+18,0.15125296783,0.598762367235,9.7501245117
1.7177169375552387e+18,0.135782638535,0.5783672790400001,9.762256782500002
1.7177169377552387e+18,0.13873899078500002,0.575418411265,9.761665512100002
1.7177169379552387e+18,0.13507910157,0.5622083816599999,9.763970718349999
1.7177169381552387e+18,0.1394275589,0.5493351516699999,9.763731216550001
1.7177169383552387e+18,0.133425041195,0.5501285019000001,9.7583873291
1.7177169385552387e+18,0.12745994567,0.55006862641,9.757534103400001
1.7177169387552387e+18,0.1340569414404762,0.5410035487714284,9.76007524752381
1.7177169389552387e+18,0.1263896713275,0.53659664154,9.7809005126
1.7177169391552387e+18,0.13354479217499998,0.548212486255,9.76396323395
1.7177169393552387e+18,0.12606784058,0.568353103645,9.761590667650001
1.7177169395552387e+18,0.132504455565,0.5830749893150001,9.75225009155
1.7177169397552387e+18,0.11832144928200002,0.5914650421200001,9.763514167750001
1.7177169399552387e+18,0.13032648467000002,0.6006484451349999,9.754233467149998
1.7177169401552387e+18,0.12695741926190476,0.6089337158142858,9.738213566333334
1.7177169403552387e+18,0.129518165591,0.604046379095,9.74757980345
1.7177169405552387e+18,0.12600796509,0.59306671143,9.754038871849998
1.7177169407552387e+18,0.13997392272999998,0.5841901702850001,9.76020604705
1.7177169409552387e+18,0.13284125517999998,0.5816230087300001,9.760647628800001
1.7177169411552387e+18,0.141134010305,0.5652395782549998,9.76489130395
1.7177169413552387e+18,0.13971196746499998,0.5560935974200001,9.771335403550001
1.7177169415552387e+18,0.13825998687500002,0.550981727605,9.765834342949997
1.7177169417552387e+18,0.14571127755714283,0.5438832746238096,9.762235042095236
1.7177169419552387e+18,0.13458512879500004,0.5351596298150001,9.772428131100002
1.7177169421552387e+18,0.14341676332000003,0.5316943359399999,9.76355159
1.7177169423552387e+18,0.134600097655,0.5345683593850001,9.77807888035
1.7177169425552387e+18,0.14063255311999998,0.54518128967,9.7675407944
1.7177169427552387e+18,0.13212274932499998,0.543302696225,9.779328781050001
1.7177169429552387e+18,0.13447286225,0.56021752167,9.77335620125
1.7177169431552387e+18,0.12556032453809524,0.5799653843380952,9.763510960142858
1.7177169433552387e+18,0.13193563843,0.59275236512,9.768221878000002
1.7177169435552387e+18,0.1275273056,0.5999074859550001,9.760729957550002
1.7177169437552387e+18,0.131321914675,0.6095324707049999,9.74878479755
1.7177169439552387e+18,0.13200299835,0.604914573665,9.76261603545
1.7177169441552387e+18,0.1361269226,0.5975798263550001,9.75961477665
1.7177169443552387e+18,0.13986165619499996,0.5829103317250001,9.771021057100002
1.7177169445552387e+18,0.14238391112,0.5800737304599999,9.76676989745
1.7177169447552387e+18,0.13712199619523807,0.5734860011380952,9.770403769333333
1.7177169449552387e+18,0.14069242859500003,0.57858432771,9.7767990418
1.7177169451552387e+18,0.13185330963999997,0.50912127685,9.763903358550001
1.7177169453552387e+18,0.134046249385,0.39333705139499997,9.79031593325
1.7177169455552387e+18,0.0951047287055,0.26348957061500006,9.76535533915
1.7177169457552387e+18,0.135767669673,0.16784596254099998,9.791296394499998
1.7177169459552387e+18,0.1478700027495,0.10523117065549999,9.801617431699999
1.7177169461552387e+18,0.06716033935466667,0.1456970214780952,9.787553819904762
1.7177169463552387e+18,0.10633138274751001,0.1217193832415,9.7634093856
1.7177169465552387e+18,-0.05896238708685,0.15218852232500002,9.760512908949998
1.7177169467552387e+18,0.013195060724999999,0.127617118837,9.78361736295
1.7177169469552387e+18,0.07318281554749999,0.1386566619815,9.781080139200002
1.7177169471552387e+18,-0.15892451476745,0.08740324401949999,9.792546295149998
1.7177169473552387e+18,-0.16051869964715001,-0.0016241226180999991,9.781663925149997
1.7177169475552387e+18,0.08453670502039999,0.039562728883200005,9.792898063700001
1.7177169477552387e+18,-0.20198710849952378,-0.0036566816026904784,9.799436253095237
1.7177169479552387e+18,0.01155596924265,0.04068539428615,9.78638660435
1.7177169481552387e+18,-0.1365759887685,0.0093330917354,9.80192429345
1.7177169483552387e+18,-0.03125500488076001,0.016637901305750002,9.795547553999999
1.7177169485552387e+18,-0.07331753540103,0.0970581665049,9.7414799881
1.7177169487552387e+18,0.0233738937475,0.096564193719,9.78432090005
1.7177169489552387e+18,-0.10085277557809999,0.12670401764449998,9.786431510749999
1.7177169491552387e+18,-0.13390012468571427,0.07663349696666667,9.80885238652381
1.7177169493552387e+18,-0.05102888488539999,0.11527528381949999,9.78167140975
1.7177169495552387e+18,-0.0744925918565,0.0598305816655,9.78513670355
1.7177169497552387e+18,-0.159470878602,0.0921558609035,9.787958335899997
1.7177169499552387e+18,-0.11386072540150001,0.0700767745965,9.7814768144
1.7177169501552387e+18,-0.161124938969,0.060938278198000004,9.7850019836
1.7177169503552387e+18,-0.15870746611849998,0.03260220337095,9.783879318250001
1.7177169505552387e+18,-0.215170051575,0.01607656860345,9.801250694250001
1.7177169507552387e+18,-0.14973861694761903,0.025411442347666662,9.796870160809524
1.7177169509552387e+18,-0.19914587402,0.035199302672949996,9.78837746425
1.7177169511552387e+18,-0.17393080903499997,0.049464637757,9.77738282775
1.7177169513552387e+18,-0.17581688690500002,0.047720764160000005,9.773805267400002
1.7177169515552387e+18,-0.17356407166,0.05971831512400002,9.7738426895
1.7177169517552387e+18,-0.223522682185,0.0355286178595,9.778902168299998
1.7177169519552387e+18,-0.21058209228499997,0.03591032409650001,9.781169952450002
1.7177169521552387e+18,-0.20719770160476195,0.0014256068633809525,9.790861227809524
1.7177169523552387e+18,-0.23974893950999995,0.02203417968779999,9.796542983999998
1.7177169525552387e+18,-0.16900605010999997,0.0318836975106,9.7780639114
1.7177169527552387e+18,-0.22515428923999997,0.0042586441039900004,9.794739235
1.7177169529552387e+18,-0.21423449706,0.0248333587646,9.78067597965
1.7177169531552387e+18,-0.26902056886500003,0.020237915039200003,9.7871575013
1.7177169533552387e+18,-0.15687377930000002,0.00844992828335,9.77953834525
1.7177169535552387e+18,-0.21433179472500002,-0.00536634063693,9.798698501599999
1.7177169537552387e+18,-0.1864479936904762,-0.00010692051533333315,9.766454838285714
1.7177169539552387e+18,-0.254283714295,-0.008098159789990001,9.769352027950001
1.7177169541552387e+18,-0.15338603209999999,-0.032677047730000006,9.802792488
1.7177169543552387e+18,-0.28655660248,-0.039869590758499995,9.80306192765
1.7177169545552387e+18,-0.167194816575,-0.02004331970345,9.78973214705
1.7177169547552387e+18,-0.21871767424999997,-0.01816472625775,9.781439392
1.7177169549552387e+18,-0.187515060425,-0.00755928039588,9.786057289200002
1.7177169551552387e+18,-0.18192169189523813,0.016736624581676192,9.763404039809524
1.7177169553552387e+18,-0.19516415405499998,0.009228309631900002,9.78145436095
1.7177169555552387e+18,-0.180584472655,0.0028889923095000002,9.77674665075
1.7177169557552387e+18,-0.20284318542,-0.0025896148681700004,9.7866261062
1.7177169559552387e+18,-0.184581161505,0.0030985565186099997,9.77766723645
1.7177169561552387e+18,-0.21668190766,-0.00904868316635,9.787194923449999
1.7177169563552387e+18,-0.20419038390499997,-0.00258961486885,9.785817787100001
1.7177169565552387e+18,-0.1716359383809524,-0.0001853288923476192,9.781587655095237
1.7177169567552387e+18,-0.20168309785,-0.011743080139149998,9.78307848365
1.7177169569552387e+18,-0.19274668121,-0.0292791137705,9.804925552450003
1.7177169571552387e+18,-0.21568647767,-0.0181647262574,9.783070999049999
1.7177169573552387e+18,-0.168991081245,-0.007095245361099999,9.796355873049999
1.7177169575552387e+18,-0.18150505829500002,0.012536430359345003,9.7769187927
1.7177169577552387e+18,-0.16099770353499998,0.0085996170049,9.783609878550001
1.7177169579552387e+18,-0.166805625925,0.020275337219300003,9.7848373261
1.7177169581552387e+18,-0.17599116732857142,0.030386810302904757,9.766903904523808
1.7177169583552387e+18,-0.180936241155,0.019010467529399996,9.777233139100002
1.7177169585552387e+18,-0.17797240447499998,0.00711769866925,9.7862518844
1.7177169587552387e+18,-0.19929556274,0.005269042967890001,9.78987435145
1.7177169589552387e+18,-0.272208938595,-0.009527687072125,9.79175294485
1.7177169591552387e+18,-0.193921737675,-0.0004490661624000001,9.78062358855
1.7177169593552387e+18,-0.24648493194499999,-0.02511776733415,9.7900315246
1.7177169595552387e+18,-0.2581702750047619,-0.012381395612761905,9.795872235952382
1.7177169597552387e+18,-0.20079244994200002,-0.10410850524899999,9.834870780900001
1.7177169599552387e+18,-0.09526938629400002,0.03293900299340001,10.47106281325
1.7177169601552387e+18,0.6401438140686501,1.8002763061,10.774511786800002
1.7177169603552387e+18,0.5775589599775,3.3321233139,10.084918304750001
1.7177169605552387e+18,0.21277503204300002,3.3741933289499997,8.9380781708
1.7177169607552387e+18,0.6307134246799999,4.123954193000001,6.4822401123
1.7177169609552387e+18,1.035037628115,5.674287757899999,7.3892265243000015
1.7177169611552387e+18,0.7884176199333333,4.610013427761904,7.004476972333334
1.7177169613552387e+18,0.4308864669685001,3.2695085220499998,9.342791564999999
1.7177169615552387e+18,0.57760386657,1.9610345077499995,9.50095266725
1.7177169617552387e+18,1.1309506759899999,1.3715229035,10.753824806499999
1.7177169619552387e+18,2.1223315887000003,1.4304628372500001,11.1864925685
1.7177169621552387e+18,1.9980600127500001,2.2675071945000003,10.0076190497
1.7177169623552387e+18,0.818198547365,3.39514974985,8.655540710499999
1.7177169625552387e+18,0.7405457414952381,4.360902884428571,7.918419276666667
1.7177169627552387e+18,0.43318418884099996,5.159388496349999,7.213978454699999
1.7177169629552387e+18,0.514502586345,4.80076425935,6.836411110049999
1.7177169631552387e+18,0.027265800482000002,3.3070654220499995,8.98539477555
1.7177169633552387e+18,0.0455427932863,1.67284629815,9.936531875750001
1.7177169635552387e+18,0.009812095643999985,0.876180473345,10.924447494
1.7177169637552387e+18,0.16979940032799998,0.73457494356,11.6798441375
1.7177169639552387e+18,0.39789507294500004,1.96134136962,10.2052605518
1.7177169641552387e+18,0.8777247620142857,2.9110321916666666,9.050123029380952
1.7177169643552387e+18,0.9654248886800001,4.309119140649999,7.711177024899999
1.7177169645552387e+18,1.3698763275149999,5.4447475890999995,7.045541221800001
1.7177169647552387e+18,0.765912277195,5.1165999754,6.743125099150001
1.7177169649552387e+18,0.8649163971149999,4.12936544045,7.798864677450001
1.7177169651552387e+18,0.5049674148319651,1.7317862319399997,9.978639312299999
1.7177169653552387e+18,0.026599685666499995,0.33423246002499996,10.843608101000001
1.7177169655552387e+18,0.28958352224523803,0.1932695225338095,11.452890733809523
1.7177169657552387e+18,1.3738954696441499,1.1905866623149999,10.401944044950001
1.7177169659552387e+18,1.306078994885,2.2729259261499997,9.211926200799999
1.7177169661552387e+18,1.5463518447999998,3.1043943787000003,9.158951362649999
1.7177169663552387e+18,1.207980491645,4.2531430435,8.001281250049999
1.7177169665552387e+18,1.03140767666,5.18142267615,6.9510127944499995
1.7177169667552387e+18,1.2749212874849998,4.781858573900001,7.25760523225
1.7177169669552387e+18,0.6364015960425001,3.7459752044999988,8.460099632300002
1.7177169671552387e+18,1.0329590934285713,2.2923116846666667,10.275874067142858
1.7177169673552387e+18,0.75763449097,1.6713269577999998,10.329868926600001
1.7177169675552387e+18,1.546546440035,2.1846470032,10.7287519456
1.7177169677552387e+18,1.5580275650000002,2.85698886105,9.837572662149999
1.7177169679552387e+18,1.4652879180999998,3.6230583115000004,9.18850740055
1.7177169681552387e+18,1.3507386246,4.3285412522,8.132513351399998
1.7177169683552387e+18,0.650734291075,5.20091214755,7.13965800485
1.7177169685552387e+18,0.31582894461285715,5.541590489000001,6.983007332904761
1.7177169687552387e+18,0.4893099746399999,4.9013101730500015,7.07052426905
1.7177169689552387e+18,0.9294022980019999,3.6411257400499997,9.18397183225
1.7177169691552387e+18,0.827247230475,2.35093620305,9.9222515714
1.7177169693552387e+18,0.787677017275,1.8897078322999998,9.9266973267
1.7177169695552387e+18,1.081920135575,1.6853752441499998,9.420412651
1.7177169697552387e+18,0.7054530029275,0.6313645706184999,10.7018379141
1.7177169699552387e+18,-0.11811188508474998,0.03502716064985,9.882277198550002
1.7177169701552387e+18,-0.08680520194000002,0.36505514960952384,9.769227643666667
1.7177169703552387e+18,-0.01764081573455,0.035543586737850005,9.785742942850002
1.7177169705552387e+18,-0.04754658091509092,0.3638116316272727,9.828398104545455
1.7177169707552387e+18,,,
