Timestamps,Gyro_X,Gyro_Y,Gyro_Z
1.7177168179602045e+18,-0.02967890365333334,0.11185586540285715,0.05728025887504763
1.7177168181602045e+18,0.00614458320125,0.08356913048600002,-0.03197974611575001
1.7177168183602045e+18,0.030312384618400003,-0.0086531864826,0.020765028893450006
1.7177168185602045e+18,0.01664997614564,-0.06844915784949998,0.005978149258050001
1.7177168187602045e+18,0.021879481081599997,-0.0194560927228,0.017681976932144995
1.7177168189602045e+18,-0.11019837833364998,-0.025615702338050002,0.0008131303358509997
1.7177168191602045e+18,-0.5744672745549999,-0.10957593367615001,-0.0435542711235
1.7177168193602045e+18,-0.6565857785095238,-0.16670466834999997,-0.08253470528952381
1.7177168195602045e+18,-0.366218032879,-0.039535247816,-0.006363993067150001
1.7177168197602045e+18,0.09039446068705,-0.05442291908100001,-0.02019188150179
1.7177168199602045e+18,0.531573396915,0.2318219510815,0.08468730381225001
1.7177168201602045e+18,0.672856426245,-0.050330114930999995,-0.01829000115505
1.7177168203602045e+18,0.5781173259,0.0506774926525,-0.027588316262949997
1.7177168205602045e+18,0.148887038408,-0.03936509287730499,-0.008494570455410001
1.7177168207602045e+18,-0.3655487150047619,-0.0364975940147619,-0.004922269256457142
1.7177168209602045e+18,-0.904254266635,-0.138554854193705,0.002978085120900001
1.7177168211602045e+18,-0.81458668113,-0.060788374678,0.06410450463815001
1.7177168213602045e+18,-0.33494735658399993,-0.19123937268635,0.0018156865613999987
1.7177168215602045e+18,0.17956041954350002,0.10361879272,0.02032675973615
1.7177168217602045e+18,0.427390666305,0.16728506665149998,-0.017043120670999997
1.7177168219602045e+18,0.6172914952049998,0.249322605875,-0.004840118973640001
1.7177168221602045e+18,0.70861400963,0.20794392582649998,0.0785630304455
1.7177168223602045e+18,0.313905494017619,-0.13466548990285718,-0.05604665610785714
1.7177168225602045e+18,-0.1649563761475,-0.07770933913025,-0.018344674038099994
1.7177168227602045e+18,-0.63704854994,-0.11332807584805,0.028266161588
1.7177168229602045e+18,-0.725450846545,-0.1478271389315,-0.03842631416310001
1.7177168231602045e+18,-0.529161717005,0.14316822361179998,0.0565434887575
1.7177168233602045e+18,-0.05646539544650001,0.005459645738499999,0.0257289362151
1.7177168235602045e+18,0.32700738906,0.037507323506500004,-0.03264191723139501
1.7177168237602045e+18,0.5272904052619048,-0.01616100066958714,-0.03136310794752381
1.7177168239602045e+18,0.6564550965949999,-0.1170701514985,-0.06695055589050002
1.7177168241602045e+18,0.621915917855,-0.145125991114,-0.0779722167155
1.7177168243602045e+18,-0.08856084491240002,-0.04845021849585,-0.02802889461195
1.7177168245602045e+18,-0.3035020360685,-0.052551612446850006,0.04171066186519999
1.7177168247602045e+18,-0.506032103305,-0.088670923742,0.05400387938150001
1.7177168249602045e+18,-0.339079228789,-0.110939664074255,0.008402690327249999
1.7177168251602045e+18,-0.05083873058150001,-0.01592041887365,0.034368448018100003
1.7177168253602045e+18,0.060530301499,0.035951013209952386,-0.0472095815033381
1.7177168255602045e+18,0.48419914097000005,0.07417494442059999,-0.060901355094999984
1.7177168257602045e+18,0.597085693485,0.16886000167699997,-0.04842818891740001
1.7177168259602045e+18,0.33410950153450003,0.14462821893050004,-0.07126490031315
1.7177168261602045e+18,-0.058302766692340004,0.033079234289835,0.008937927394140002
1.7177168263602045e+18,-0.35870213927600003,-0.074516920931,0.03813051200979
1.7177168265602045e+18,-0.5540023922999999,-0.21688387469,0.07323303455550001
1.7177168267602045e+18,-0.47276883181428575,-0.1962376008152381,0.0055170321416571425
1.7177168269602045e+18,-0.23105966747,0.0069934375994,0.077098123723
1.7177168271602045e+18,0.067498859763,-0.0099757598247,-0.0009793573177999996
1.7177168273602045e+18,0.282676344365,0.15742517375250004,-0.0397984729156
1.7177168275602045e+18,0.405100940165,0.004538749952449999,-0.07107272246175
1.7177168277602045e+18,0.668518203505,0.16264967889999998,0.034765507886999995
1.7177168279602045e+18,0.2120256737715,0.1768432166385,-0.010716195284900004
1.7177168281602045e+18,-0.0241603042237,-0.015266443558749999,-0.001815031700505
1.7177168283602045e+18,-0.4311017862380953,-0.0803070632495238,0.06570739089904762
1.7177168285602045e+18,-0.6232986182,0.010302754585500002,0.07067975923400001
1.7177168287602045e+18,-0.49054627567500003,0.07652021356080001,0.06437858231425
1.7177168289602045e+18,-0.37256262748499996,0.329658251995,0.03749148871280001
1.7177168291602045e+18,-0.31972638965,0.12914530043175,0.026564156299499996
1.7177168293602045e+18,-0.18259509690349998,0.08512136316392999,0.0726717273176
1.7177168295602045e+18,-0.008754822606595,0.0543870209715,0.04597000679865
1.7177168297602045e+18,0.016711304973380952,0.023386363227714285,0.020900776454861904
1.7177168299602045e+18,-0.01810224261165,-0.0011445172024,0.01587514718985
1.7177168301602045e+18,-0.004374885794975,-0.0278980072615,0.06073080869099999
1.7177168303602045e+18,0.0065054706760049996,-0.04890387412107999,-0.0074531559365
1.7177168305602045e+18,0.020000759907600002,-0.10877519418249999,0.019453027192599996
1.7177168307602045e+18,0.01695205405677,0.0662250302717,-0.003394767724550001
1.7177168309602045e+18,-0.007448028626745001,0.035102285072750004,-0.04634078984395
1.7177168311602045e+18,0.03494629628274999,-0.009796616435349998,-0.0280887833795
1.7177168313602045e+18,0.06528314983571429,0.0050589741715285725,0.009072476132666665
1.7177168315602045e+18,0.023630048753,-0.029448176291699997,-0.014119282574224998
1.7177168317602045e+18,0.018061375058999997,-0.010886124219000001,-0.010312757082550002
1.7177168319602045e+18,0.013755438686400001,0.0027270690773650006,0.0057381693678
1.7177168321602045e+18,0.004889047169049999,-0.0059380260527999995,0.00083346823225
1.7177168323602045e+18,0.002285295797535,0.001525565003995,0.006441436952299999
1.7177168325602045e+18,0.00388980336719,0.000996236858295,0.00155047115404
1.7177168327602045e+18,0.003311757857503857,-0.00017396546889523833,0.007681481994761906
1.7177168329602045e+18,-0.01049096018623,-0.014333153608399998,0.003821730718305
1.7177168331602045e+18,-0.0030644507817599994,-0.002883176301746,0.0031591657258600004
1.7177168333602045e+18,0.0032495256280499997,-0.0017801477923279998,-0.00018060241709
1.7177168335602045e+18,0.006083727791199999,-0.00151470776187955,-0.0005198585509135
1.7177168337602045e+18,0.006333143467935,-0.00039382762034899984,-0.00018171097619100002
1.7177168339602045e+18,0.0021190012807000007,-0.007012864993951,0.001171081990465
1.7177168341602045e+18,-0.0151771688367,0.0020297021372569996,0.008214423107305
1.7177168343602045e+18,-0.006406566571638095,0.005650012443119999,-0.0016537416792428573
1.7177168345602045e+18,0.001130577357359,-0.0065478700328499995,-0.00023449680299699997
1.7177168347602045e+18,0.0024911378103000003,0.005129364063075,-0.000948093290243
1.7177168349602045e+18,0.0021330211893355,0.001249212538824,-0.0021120088524449994
1.7177168351602045e+18,0.0012412856623800002,0.011222464672385,0.001514003344375
1.7177168353602045e+18,0.0080419249139,-0.021403519541765,-0.0016640112735525
1.7177168355602045e+18,0.01156568736725,-0.0023504755866885,-0.001836146542352
1.7177168357602045e+18,0.007588919728857143,0.0041796193746666665,-0.008296072993447617
1.7177168359602045e+18,0.0111285605936,-0.0009369414878205003,0.0037984387368
1.7177168361602045e+18,0.011968947110149999,-0.013348531350699999,-0.006803983240776
1.7177168363602045e+18,0.00613874082951,0.0006743716890800001,0.0018725391011249995
1.7177168365602045e+18,-0.00278423139831,-0.004089949687385,-0.00082098569257
1.7177168367602045e+18,0.0011643988575349997,-0.00025913957493499986,0.001660685846516
1.7177168369602045e+18,0.0013178502529710002,-0.00138926532809,0.0009843498934904997
1.7177168371602045e+18,-0.00102557979119,-0.00528679204875,0.00019087908436949994
1.7177168373602045e+18,-0.002524152836052381,-0.0019382762257238093,0.0026887514561714284
1.7177168375602045e+18,0.000793111129315,-0.0013939294265945,0.000417298823565
1.7177168377602045e+18,0.000928716739855,0.0015040648984214998,0.0015799241140499998
1.7177168379602045e+18,-0.00055449617205,-4.69588790854999e-05,-3.4282286665499926e-05
1.7177168381602045e+18,-0.010482236148,0.007033500750450001,0.004798915982333
1.7177168383602045e+18,0.00334693959435,0.0040140414145500005,-0.00082114609533
1.7177168385602045e+18,0.00894476242795,0.00241117493708,-0.00039567900231449995
1.7177168387602045e+18,0.0012319855546666664,0.006037606081238095,-0.004272531008566667
1.7177168389602045e+18,0.003446371498255,0.006484836316359999,1.898452169999988e-05
1.7177168391602045e+18,0.01167387422095,-0.004534622549535,0.0004646860179794999
1.7177168393602045e+18,0.01103187389595,0.0027428383705300004,0.0028211536818050003
1.7177168395602045e+18,0.005685062636619999,-0.0019876447798,0.00021214749435499998
1.7177168397602045e+18,-0.0016471429698809998,-0.00023932940086499992,0.0006153638765900001
1.7177168399602045e+18,-0.0017525516828860003,-0.0015725554082599998,-0.0003804902197015
1.7177168401602045e+18,0.0008678573593571429,0.0012174756820380953,-0.0005680983166000001
1.7177168403602045e+18,-0.00503560141075,0.0021354691357490002,0.0008515849883550001
1.7177168405602045e+18,-0.0042925174754599995,0.00106844311812,0.001758440944747
1.7177168407602045e+18,-0.0017427290732075,0.002068288484575,0.000793032953505
1.7177168409602045e+18,-0.007448007117109999,-0.00063479602098,0.00332176232485
1.7177168411602045e+18,-0.007210548253520001,0.001825974625506,0.002736960793885
1.7177168413602045e+18,-0.001275724018095,0.0019192051024499997,0.0002455693844210001
1.7177168415602045e+18,0.004602228916755,0.0101819466334,0.00139994502525
1.7177168417602045e+18,0.002775949836342857,0.001032842278910476,-0.00032186252620428573
1.7177168419602045e+18,0.004956744623,-0.00080081177874325,0.000125956966059
1.7177168421602045e+18,0.005236906919259999,-0.0010538805276249998,-0.000363842118495
1.7177168423602045e+18,0.00970274768745,-0.0010002121038499999,-0.0007501226735250001
1.7177168425602045e+18,0.0112453168732,0.0007132041734299998,0.0007667897152700001
1.7177168427602045e+18,0.009549201931499999,-0.00197937006011,0.0002783437782799999
1.7177168429602045e+18,0.0037264433108149995,0.001150901860105,0.0012653434066714998
1.7177168431602045e+18,-0.0007500315411779523,-0.002946611588102382,-0.0005667950137285715
1.7177168433602045e+18,-0.002315115067185,0.000500282249415,0.0010928426869150003
1.7177168435602045e+18,-0.004894531687149999,-0.0026602183934000003,-0.0004174402914900001
1.7177168437602045e+18,-0.009999457397800001,-0.0022724726932900003,-0.001429965085165
1.7177168439602045e+18,-0.00475602892685,-0.00168164569196,-0.00038393949519999995
1.7177168441602045e+18,-0.004188137781195001,0.0038912518532499994,0.002658904250695
1.7177168443602045e+18,-0.007241517223549999,0.0008482980309139999,0.0008683992899490001
1.7177168445602045e+18,-0.007722358499000002,0.0018115382873849996,0.00040141211361949996
1.7177168447602045e+18,-0.0016192506550809524,-0.0006680252152119049,-0.0005696281247380953
1.7177168449602045e+18,-0.004527925580565,0.0013345242593610003,-0.001132313365825
1.7177168451602045e+18,-0.0010595669913495,-0.0006949440227277236,-0.0002295635872755
1.7177168453602045e+18,0.002208743488895,0.0009791514369345,0.0008667112560585002
1.7177168455602045e+18,0.00568640087745,-0.0006518377107,-0.0012668507057649997
1.7177168457602045e+18,0.009603473648,0.001602116611395,0.0008530883933649999
1.7177168459602045e+18,0.010314334253849998,-0.00149209292135,-0.002147904998823
1.7177168461602045e+18,0.009047468592285715,-0.000298639875895238,0.00022349915731904765
1.7177168463602045e+18,0.010668178950299999,-0.002408756362195,-0.0016464952728599998
1.7177168465602045e+18,0.01189926674115,0.0003496616380370001,0.0018956825485240004
1.7177168467602045e+18,0.010783036705100002,-0.0043619647272,-0.00091681384939
1.7177168469602045e+18,0.00249215524526,0.000538463960375,0.0008905165886115001
1.7177168471602045e+18,-0.00285348726325685,-0.0017835047153865,-0.000474147382267
1.7177168473602045e+18,-0.004500112368295,0.0010879382839749996,0.0005587522057
1.7177168475602045e+18,-0.007726314617250001,-0.00026964710562999995,-0.0005460601823250001
1.7177168477602045e+18,-0.01064821700757143,0.005575222817047619,0.001755921070376191
1.7177168479602045e+18,-0.0064565433073,4.370085669499998e-05,-2.2288836701000023e-05
1.7177168481602045e+18,-0.003985298681150001,0.0018657094333045005,0.0016424713773484998
1.7177168483602045e+18,-0.00615516405675,-0.0005482224049499999,0.000352603540564
1.7177168485602045e+18,-0.0059748526548585,0.00101817627434,0.0012204356257999997
1.7177168487602045e+18,0.00039300560608199994,0.0012205468374652,-0.00047532892208500006
1.7177168489602045e+18,0.0026449241064299997,-0.000408809503996,-0.000258088379605
1.7177168491602045e+18,-0.0006502561543438095,-0.0013951173362919045,-0.0009688188632761905
1.7177168493602045e+18,-0.00061026858740115,-0.000897622667248,0.00066518796379615
1.7177168495602045e+18,0.0043227588699000005,0.0004046851303434999,-0.0007346069207360001
1.7177168497602045e+18,0.007663614838350001,0.0010540325893950001,0.0006737105141155001
1.7177168499602045e+18,0.005417419603389999,0.0010404002270740001,-0.0008108248933549998
1.7177168501602045e+18,0.00718040681635,-0.002900684462005,0.0002806715084780999
1.7177168503602045e+18,0.00903496141575,-0.0012716490659299999,-0.00093153747719
1.7177168505602045e+18,0.007841327309100001,0.00170195944373,0.0007781023857875
1.7177168507602045e+18,-0.0011508540705190476,-0.0017529892779095239,-0.0009266216518466666
1.7177168509602045e+18,-0.004880749949215,0.00060353307050855,0.0013680261443425
1.7177168511602045e+18,-0.0030968218370949997,-0.0008205858816950001,-0.001434361538865
1.7177168513602045e+18,-0.0028342980368295,0.00096748518984,0.001003009040125
1.7177168515602045e+18,-0.011136079577799999,0.001194968482045,0.001353612053145
1.7177168517602045e+18,-0.00633848412495,0.002363746520125,0.0007726389914710001
1.7177168519602045e+18,-0.0014344238064700001,0.000445683515825,-0.000523700891105
1.7177168521602045e+18,-0.0005040581897238095,-6.239383403333336e-05,-0.00012121230942666667
1.7177168523602045e+18,-0.0029302621493250006,0.000298046879495,-0.00030856429952250006
1.7177168525602045e+18,-0.0010105721534835002,2.7970172184999967e-05,-0.0004252208280585
1.7177168527602045e+18,0.0040665331995749995,-0.00046064314672000003,-0.00099727578339
1.7177168529602045e+18,0.0058645093116,0.0003713226526899999,9.627947585700005e-05
1.7177168531602045e+18,0.004039918293635,0.0012557132634799999,-0.0005522158986749999
1.7177168533602045e+18,0.00563851373725,0.0023475424270695006,-2.8253764709999754e-06
1.7177168535602045e+18,0.00832432315255,0.00040925618374999996,-0.00121606077875355
1.7177168537602045e+18,0.00448104636373,-0.0002376142378857144,0.0007692543523285714
1.7177168539602045e+18,-0.003104049357305,-0.00018695393223149996,0.00070219677882
1.7177168541602045e+18,-0.003214851863005,-0.0006558994064050001,-0.0004380942730335
1.7177168543602045e+18,-0.0038319301035445,0.0005389554891849998,0.001266494661039
1.7177168545602045e+18,-0.0030598555342935003,-0.0003788936825699999,0.0006951634073650001
1.7177168547602045e+18,-0.0059890453586000005,0.0027816724265500004,0.001491910952672
1.7177168549602045e+18,-0.002570988700646,0.0005436544364709999,1.033961306999996e-05
1.7177168551602045e+18,-0.001979440148574286,0.0024573774010123815,0.0014842958744333333
1.7177168553602045e+18,-0.0020986923307055004,-0.000495036714608,-0.0007962195552155
1.7177168555602045e+18,-0.0020636205619495003,0.0021495941909203792,0.0006658764554499999
1.7177168557602045e+18,0.0027290043944799996,0.00022814725533500013,-0.0010177787160600001
1.7177168559602045e+18,0.006312592776000001,-0.0021763053489699995,-0.000383869861215
1.7177168561602045e+18,0.005297473666850001,-0.0006570110447365001,-0.0016011707659450002
1.7177168563602045e+18,0.004630064172794999,0.00188125835275,-0.00022819443843000005
1.7177168565602045e+18,0.005688598396190476,-0.0013427974079847618,-0.0012119921323761906
1.7177168567602045e+18,0.005796724295930001,0.0007083378033550002,0.0012800251366625
1.7177168569602045e+18,-0.0018164598731915,-0.0014734804047499997,-0.0009632692555149999
1.7177168571602045e+18,-0.004043195734255,-0.00024444181468499994,0.0009467724710730001
1.7177168573602045e+18,-0.002561732154612,-0.001648716291005,-0.0013238610466299997
1.7177168575602045e+18,-0.0040827268558650005,0.0007101945812560001,0.0005228045512599999
1.7177168577602045e+18,-0.00651242674815,0.0009896258357535,0.000328291719875
1.7177168579602045e+18,-0.00626093609605,0.0006180143332925,0.001305555552325
1.7177168581602045e+18,-0.003131461825885714,0.0003919666411461905,0.00011203463546952382
1.7177168583602045e+18,-0.003324643184845,-0.0008642612141285,-2.432166367899995e-05
1.7177168585602045e+18,-0.003770301520105,-0.000535283086366,0.000586417678325
1.7177168587602045e+18,-0.0018026742792849998,-0.00024050307103499997,-0.00029124595461499993
1.7177168589602045e+18,4.7226372445000044e-05,0.002039864601076,-0.0002958980971325001
1.7177168591602045e+18,0.0025954926618299997,0.00020680704614154988,-0.0006441061152415
1.7177168593602045e+18,0.0034185736731415007,0.0017427063431,-0.0007111195009175
1.7177168595602045e+18,0.005467335006142857,0.000818096445012857,-0.0010897634894609526
1.7177168597602045e+18,0.0081257676938,0.0010547529090555,-0.00046672074833300006
1.7177168599602045e+18,0.005903319350899999,-0.001762841769945,-0.001361902646053
1.7177168601602045e+18,0.0032381741622903998,0.000808912154695,0.001069891138384
1.7177168603602045e+18,0.00239968745752,0.0016858086805049996,0.0006897981277685001
1.7177168605602045e+18,0.0016880528710450002,0.0010517364834285,0.000689127371863
1.7177168607602045e+18,-0.004108818009375,-0.0023596905753949997,-0.000144794583365
1.7177168609602045e+18,-0.00852732902885,0.0014184274129,0.0004471723805120001
1.7177168611602045e+18,-0.0050163155565857145,-0.0005999004268685714,0.0003492326941966666
1.7177168613602045e+18,-0.00278593384432,0.0014100021333400001,0.0011392005836249998
1.7177168615602045e+18,-0.005640815221614999,0.00046001995215000005,-0.0004985410953605001
1.7177168617602045e+18,-0.005434237437919999,0.002913001773485,0.000629819801464
1.7177168619602045e+18,-0.0021912782919999993,0.00054046409207755,-0.00013494825684000003
1.7177168621602045e+18,-0.00213761081687,-0.0006086972541445,0.00032731269606899987
1.7177168623602045e+18,-0.0040536436805595,-0.0008979586883824999,0.00019171427705
1.7177168625602045e+18,-0.0007829958812142859,-0.002495455101052381,-0.00012569227033476193
1.7177168627602045e+18,0.002022398586315,0.0007746857009070001,-0.000870823685475
1.7177168629602045e+18,-0.00025763563467500004,-0.001890775165555,-0.0008054610807900001
1.7177168631602045e+18,-0.003973493853065,0.0022851934772805003,0.0006957379401799998
1.7177168633602045e+18,2.2950820879999976e-05,0.00047114882621499996,-0.000647431542155
1.7177168635602045e+18,0.0018859600123550002,0.0054214703035349995,0.001308012811986
1.7177168637602045e+18,-0.00215371584061,-0.0010455214767785004,-0.0015233570825320003
1.7177168639602045e+18,0.00204987459002,-0.001858369051405,-0.0005693129728949999
1.7177168641602045e+18,0.008116945646476189,-0.0011241159325066667,-0.001016045743147619
1.7177168643602045e+18,0.008767521358200001,-0.0009113928187150001,-0.0015079429489805
1.7177168645602045e+18,0.00802621443295,-0.00018291072914662,-0.0005204388521689999
1.7177168647602045e+18,0.010101216170799999,-0.0028305743703500004,-0.001388800481705
1.7177168649602045e+18,0.01006504090105,-0.0009242811357350001,0.0011185714624500002
1.7177168651602045e+18,0.0015169596007499997,-0.0029928782722450004,-0.0006869315402929499
1.7177168653602045e+18,-0.00546281501885,0.000419521238685,0.0011313116642465
1.7177168655602045e+18,-0.004890564701571428,-0.002502683904895238,-0.001588817120409476
1.7177168657602045e+18,-0.0070901356116,0.0007022146485350001,0.0010076040750800002
1.7177168659602045e+18,-0.00935601007625,0.001008447597315,0.000525396596595
1.7177168661602045e+18,-0.0068151582728499995,-0.00025638926311000003,-8.878390063199999e-05
1.7177168663602045e+18,-0.004127594202855,-0.0002876602229955001,0.00039168288930400004
1.7177168665602045e+18,-0.0034117701288149996,-0.0024876035866699996,-0.0006053721066600001
1.7177168667602045e+18,-0.005047077458650001,0.001217423682062,-0.00016503323573149997
1.7177168669602045e+18,-0.001076068307205,-0.00017872768225,-0.00027298989010249996
1.7177168671602045e+18,0.002032836791052381,0.0045755077486380955,0.0008886420346022382
1.7177168673602045e+18,0.00014212735400249992,0.0016591264401749999,-0.0005903820507180502
1.7177168675602045e+18,0.0009686970092999999,-0.001285476377139,-0.0005015129921684999
1.7177168677602045e+18,0.0065450455992,-0.0023902579269735,-0.0013829115313045502
1.7177168679602045e+18,0.00836467883765,0.00080743429729,-0.00029325954386000004
1.7177168681602045e+18,0.006218897236855,-0.0005535854375149999,-0.0009185427566599997
1.7177168683602045e+18,0.007162709999899999,-0.00049518328161,0.00019837237186750003
1.7177168685602045e+18,0.009239208552047618,-0.0021578776761428573,-0.0012494940532380952
1.7177168687602045e+18,0.0017517696947694998,-0.00274881424854,-0.000751798553345
1.7177168689602045e+18,-0.006044677603915,0.000695120985615,0.000234027230195
1.7177168691602045e+18,-0.004860165005099999,0.00040929216191000007,-0.00021521830351499996
1.7177168693602045e+18,-0.005286720953900001,0.0024375539389550004,0.0016625520307664999
1.7177168695602045e+18,-0.007707204587950001,0.00071288812897,-0.0002562823355849999
1.7177168697602045e+18,-0.0090282492803,0.0016414151644230002,0.000668663019175
1.7177168699602045e+18,-0.005312115926050001,-0.0016143360058570003,0.0003541375219219999
1.7177168701602045e+18,-0.0020932588903333333,0.0011296361862023808,0.0011023372699594286
1.7177168703602045e+18,-0.002465246204535,-0.001076966768655,-0.0003703628142050001
1.7177168705602045e+18,0.0029282742819850003,-0.00016159320941400005,-4.655361440000002e-06
1.7177168707602045e+18,0.006994433584650001,0.00034947504755,-0.0012199906865105
1.7177168709602045e+18,0.00809573745355,-0.000703043228775,-0.0004832109436699999
1.7177168711602045e+18,0.005922903312405,0.0003688332100225,-0.0001981923008115
1.7177168713602045e+18,0.006230651564000001,-5.404851402606503e-05,-0.0010000639828200001
1.7177168715602045e+18,0.008982322466857142,-0.0005289018043642858,0.0007456349807128572
1.7177168717602045e+18,0.001677557034395,-0.0029713949653449997,0.00016252085910499999
1.7177168719602045e+18,-0.007026743911950001,-0.00048913662317,0.0008053513942750002
1.7177168721602045e+18,-0.006479757186,-0.000781504414093,-0.0003854906419749999
1.7177168723602045e+18,-0.0059748179569999995,0.0018934377818684996,0.0006939414074285
1.7177168725602045e+18,-0.0081575713712,-0.00021184436039009996,-0.00022971037543350015
1.7177168727602045e+18,-0.00855888756915,0.0010926907881834997,0.0007461441622675
1.7177168729602045e+18,-0.007706961017952382,0.000226866797495238,-0.0013482111528619045
1.7177168731602045e+18,-0.0051576778117395,-0.0005853649578984,-0.0003882898133729999
1.7177168733602045e+18,-0.0027646290661935,9.076106353500004e-05,0.0004384988220445
1.7177168735602045e+18,-0.0012040954375054503,-0.0010723895045000001,-0.00037034678963
1.7177168737602045e+18,0.004538419330765,0.0022828412707800003,0.000284059147812
1.7177168739602045e+18,0.005754105316,-0.0010374354897000001,-0.000788164325071
1.7177168741602045e+18,0.005437211122049999,0.0021526205935585,-0.00019784056352100004
1.7177168743602045e+18,0.005699563014749999,0.0004961650702539999,-0.0006769825413665
1.7177168745602045e+18,0.008868335679761905,0.0002886244939053334,-6.7878448133332705e-06
1.7177168747602045e+18,0.0053963637212,-0.0039956334513,-0.0009907176717634998
1.7177168749602045e+18,-0.012736067129055001,-0.009367832518074999,-0.00954954053768
1.7177168751602045e+18,-0.039179397373,-0.01545360612125,-0.016843845019650003
1.7177168753602045e+18,-0.021735418354299995,-0.014252797911049997,-0.013529392739360002
1.7177168755602045e+18,-0.019650909399,-0.0005097548947099998,-0.009275152859605
1.7177168757602045e+18,-0.009928745810900001,-0.00801042684975,-0.004735274164775
1.7177168759602045e+18,-0.012580250068238093,-0.0004246174245285715,0.009503475052238095
1.7177168761602045e+18,-0.0410174797285,0.011644074168650001,0.012072756805564997
1.7177168763602045e+18,-0.045236195065,-0.00189574273529,-0.023058925114850002
1.7177168765602045e+18,-0.02341863644475,-0.0018765876998999998,-0.011596784776249999
1.7177168767602045e+18,-0.026503529945300003,-0.0556861429465,-0.01460974572755
1.7177168769602045e+18,0.0049674751533,0.0032025091612700013,-0.0035025059242429998
1.7177168771602045e+18,-0.00635662374665,0.10957887266400002,0.029444922157849995
1.7177168773602045e+18,-0.025266567344325003,0.0176834174204,0.00787171406115
1.7177168775602045e+18,-0.01161373586252381,0.0052743482598571435,-0.016374091018238095
1.7177168777602045e+18,-0.008789281011344999,0.010526021314865,0.01158083884485
1.7177168779602045e+18,-0.012074866028999997,0.013546419213375002,-0.009302078500985
1.7177168781602045e+18,-0.017029633838999997,0.021261570090099997,0.021144143259100003
1.7177168783602045e+18,-0.0071729592509,0.025479903885849996,0.021440762933100006
1.7177168785602045e+18,-0.012900852435450003,0.015079609223750002,0.0127630535046
1.7177168787602045e+18,-0.004298023871045,0.038682310283500006,-0.018873430019
1.7177168789602045e+18,-0.0036299009253142867,0.033545905634890474,-0.018599512697809528
1.7177168791602045e+18,0.00955355402532,-0.06135367662764999,-0.012952138588699999
1.7177168793602045e+18,-0.0067289959057295,0.03694679548470001,0.0062133655658
1.7177168795602045e+18,-0.0062072548481975,-0.03468831907929999,-0.01178385196282
1.7177168797602045e+18,-0.004596031160277501,0.01619818580795,0.032988932984445
1.7177168799602045e+18,-0.010498343664850002,-0.042012719346,-0.02432236466567
1.7177168801602045e+18,0.02213423391865,0.03834932912045,-0.007169846026399999
1.7177168803602045e+18,0.014753164264003499,0.042992196698,6.67812190650001e-05
1.7177168805602045e+18,-0.00925336908457619,0.01450127485062381,0.007305387740190477
1.7177168807602045e+18,0.021908585262150004,-0.0213322526321,0.01770635261186
1.7177168809602045e+18,0.02471927615145,-0.028129574982,0.005470032116119999
1.7177168811602045e+18,-0.027510254020799995,0.0332186306827,0.00996498338629
1.7177168813602045e+18,0.02165272887875,-0.02339965349475,-0.0069370158368899995
1.7177168815602045e+18,-0.0001508827030399996,-0.031854972743845,0.0007644802329949999
1.7177168817602045e+18,-0.014433795377100003,0.019880897027299997,0.0036524732537495004
1.7177168819602045e+18,-0.005090985142461905,0.004379786019047618,-0.005075818715076667
1.7177168821602045e+18,-0.01063969163275,-0.01438064058245,-0.0060236388705750005
1.7177168823602045e+18,-0.0035853278997,0.00020995157584999968,0.0040058224465300005
1.7177168825602045e+18,0.03666295446399999,-0.048269292468400005,-0.0007857622120000001
1.7177168827602045e+18,-0.013289229373955,-0.03499936568504999,-0.021993134252399998
1.7177168829602045e+18,-0.030852956230499988,0.083248705417,0.013639851856797
1.7177168831602045e+18,-0.003845506953077,0.0412690964062,0.013153573638450003
1.7177168833602045e+18,-0.0008980451733580001,-0.0161940710383,-0.008438774768699999
1.7177168835602045e+18,-0.0021720724596809523,0.005195081921895238,0.00011295314171428602
1.7177168837602045e+18,-0.0010868718849000002,0.013224676437765,0.004275796166695
1.7177168839602045e+18,-0.0034436724672499996,-0.0070782888446999995,-0.0038962226826854997
1.7177168841602045e+18,-0.00165719366911,0.004865949601045,0.0021022113389410004
1.7177168843602045e+18,-0.000770695716995,0.009427175112483,0.00028208318406545003
1.7177168845602045e+18,-0.0019434312998169994,0.012324022676675001,-0.0005485836649834999
1.7177168847602045e+18,-0.0029341460845919995,0.001093699643365,-0.0006134598981249997
1.7177168849602045e+18,-0.0036445364433904757,-0.00023384325738095248,0.0005268088120904763
1.7177168851602045e+18,-0.00221912928981245,-0.00107421904101,0.00067348525628
1.7177168853602045e+18,0.0023259273642400003,-0.0008039331065099999,0.0004488126724050001
1.7177168855602045e+18,0.00217573118285,0.00031674951319499996,0.0012069532880499998
1.7177168857602045e+18,0.0017537722247289995,-0.0020417030668180005,0.00026146083837
1.7177168859602045e+18,-0.000229898418157,0.00107275244081,0.00021072092933250002
1.7177168861602045e+18,0.00301617223007,0.010176633764399999,0.00561259585636765
1.7177168863602045e+18,0.00528691736361,0.01152520563955,0.0027953260695214996
1.7177168865602045e+18,-0.003719931044304762,-0.008872525856051429,-0.002216487158271429
1.7177168867602045e+18,-0.004072888108278999,-0.011048144649,-0.002958616789
1.7177168869602045e+18,-0.00032590675110149995,-0.003412756242375,-0.003142190259005
1.7177168871602045e+18,-0.0016060540336,-0.003819600690155,-0.00025003942441
1.7177168873602045e+18,-0.004103101021595,0.00081550923642,-7.586253346799992e-05
1.7177168875602045e+18,-0.0008163573627349999,-0.0047654172172655,-0.00245963148772
1.7177168877602045e+18,0.0036045965272341997,-0.0062696637585849995,-0.0006801340146014998
1.7177168879602045e+18,0.002452850147838096,-0.0036747930572538093,-0.003348205438257143
1.7177168881602045e+18,0.0045120294788999985,0.004645055334525001,-0.001205797493425
1.7177168883602045e+18,0.006856023427300001,-0.01348373772324,4.6929845115000046e-05
1.7177168885602045e+18,0.006606848928699999,-0.006880572461750001,0.0039950254032
1.7177168887602045e+18,-0.00616665952794,-0.048880823702,-0.031223845760999996
1.7177168889602045e+18,-0.005818907776049999,-0.0062554571317,0.004232375777335
1.7177168891602045e+18,0.400929435155,-0.234819495771,0.016263568703399997
1.7177168893602045e+18,1.028406861395,-0.189307253719,-0.12356270584714998
1.7177168895602045e+18,0.6400344031190477,-0.16057170502095242,-0.08091040008761903
1.7177168897602045e+18,0.4444756388599999,0.062447061068,-0.014992550958799995
1.7177168899602045e+18,0.32866039573999994,0.12203042712850001,-0.025715435784399998
1.7177168901602045e+18,0.077854346790505,0.09725520657350001,0.03352670227345
1.7177168903602045e+18,-0.08148956252445001,0.051562436320900004,0.03803735282399999
1.7177168905602045e+18,-0.3447094645365,-0.06504497825444999,-0.0056689254356999995
1.7177168907602045e+18,-0.736453756685,0.052856829387499984,-0.02453460787925
1.7177168909602045e+18,-0.49327004664761903,-0.08483031851982858,-0.04248313929619048
1.7177168911602045e+18,-0.01350592157915,-0.17686848490849996,-0.0230599375671
1.7177168913602045e+18,0.31224585324000004,-0.25929690523999993,-0.04194321141575
1.7177168915602045e+18,0.558518636225,-0.06896850177799999,-0.09424496888999999
1.7177168917602045e+18,0.47374258637500005,0.08126921998350001,-0.01800723886175
1.7177168919602045e+18,0.2524845818365,0.11973702088700003,0.045075761247
1.7177168921602045e+18,-0.028992998304735,0.1448717422725,0.085889184659
1.7177168923602045e+18,-0.5424211521904762,-0.06858275549680143,0.020219270716000003
1.7177168925602045e+18,-0.64118601382,-0.041657075030400004,-0.0167004411452
1.7177168927602045e+18,-0.5418933287300001,-0.04381129034575,-0.0016155799613999996
1.7177168929602045e+18,-0.18155658212550002,-0.0406727903761,0.018303033253499995
1.7177168931602045e+18,0.25453146639499996,0.0655848046386,-0.0243380350203
1.7177168933602045e+18,0.505263765165,-0.036296922850780004,-0.0425360332235
1.7177168935602045e+18,0.5699158519599999,-0.04504406639737,-0.07362468112349999
1.7177168937602045e+18,0.5551136151,0.03587317624995,-0.0048716909319499995
1.7177168939602045e+18,0.0319104120952381,0.11487794649142856,0.044960055068
1.7177168941602045e+18,-0.136307005215,0.0414986928321,0.00901956083197
1.7177168943602045e+18,-0.6071731626949999,-0.07940078362555,0.0390130119149
1.7177168945602045e+18,-0.5500362739,-0.0631351982423885,-0.0058858241648005
1.7177168947602045e+18,-0.32537378519999993,0.12395485281149998,0.042733799980195
1.7177168949602045e+18,-0.021431096736699996,-0.048578613047899996,-0.017045312804915003
1.7177168951602045e+18,0.33415857813,-0.043027474441700006,-0.07016058675850001
1.7177168953602045e+18,0.47460033070952384,-0.0007678310243809568,-0.09625396434095239
1.7177168955602045e+18,0.5807475387950001,0.08481595702945001,0.0018682178569149998
1.7177168957602045e+18,0.08722558120050003,0.010734684997000003,-0.017151684453400005
1.7177168959602045e+18,-0.08396461568880001,0.012497652391849998,0.006638666033500001
1.7177168961602045e+18,-0.5402219876700001,-0.038605260990199994,0.07539557357999999
1.7177168963602045e+18,-0.572735184435,-0.20696594192149997,0.011791630857627505
1.7177168965602045e+18,-0.341087508205,-0.019785579389049998,0.01222179870815
1.7177168967602045e+18,-0.037555395814549995,-0.0340212908534,-0.0009281671835000005
1.7177168969602045e+18,0.19329582155714287,0.06716593824809525,-0.0046293765112
1.7177168971602045e+18,0.36039177924,-0.03183583076,-0.0408227421355
1.7177168973602045e+18,0.5102079153049999,0.051552635970675,-0.042283040193
1.7177168975602045e+18,0.3143635926235,0.14345054030600002,-0.019242331234939996
1.7177168977602045e+18,-0.005004914737139998,0.11038677021299999,0.043500782784000006
1.7177168979602045e+18,-0.15415975507600002,-0.038133551972100006,0.012317057547015
1.7177168981602045e+18,-0.4793045103550001,0.0005204978965750006,0.024453466490495002
1.7177168983602045e+18,-0.37276179166190476,-0.05030199988895239,0.009010978552142857
1.7177168985602045e+18,-0.38704512119,-0.0988240920955,0.039607910241225
1.7177168987602045e+18,-0.505366396895,-0.062482133980049995,0.049007863270499996
1.7177168989602045e+18,-0.5390313722125,0.36395922898499994,-0.004046802223849999
1.7177168991602045e+18,0.028483805723825,0.24048608764499996,0.009524929150550001
1.7177168993602045e+18,-0.0192636890808,0.094210348651,0.030267408351449997
1.7177168995602045e+18,-0.0334066426844,0.07006395617399999,0.06775395869949999
1.7177168997602045e+18,-0.081591095595,-0.05484112458820001,-0.01244891101985
1.7177168999602045e+18,-0.012515101118714286,0.05174124130019048,0.005586140089866667
1.7177169001602045e+18,0.032638210477,-0.03064681554705,-0.012927749928000002
1.7177169003602045e+18,0.019864971691305,0.04679584028099999,0.031811555370145
1.7177169005602045e+18,0.046075518616,0.007986482931500002,0.04771748315482001
1.7177169007602045e+18,0.03963571279399999,-0.03469808539350001,-0.015172902913950001
1.7177169009602045e+18,0.040813660808999994,-0.0078078596266999995,0.0006086915732
1.7177169011602045e+18,0.0256727813745,-0.027981675696,-0.009066874941454998
1.7177169013602045e+18,0.022244184112428574,-0.009636657567723335,0.0037910130007352385
1.7177169015602045e+18,-0.001000844038185,-0.00520660167092,0.0004151059896750001
1.7177169017602045e+18,0.011760442634,-0.0018070321297055,-0.002795951563145
1.7177169019602045e+18,0.026072439087,-0.0077371135010499996,-0.0033597003202149992
1.7177169021602045e+18,0.012123532586990001,-0.0138234540351,0.00191541527158
1.7177169023602045e+18,-0.0058778612694,-0.0196412725371,0.00807707251465
1.7177169025602045e+18,-0.002338358981135,-0.0038818651927599998,0.0024509770564400003
1.7177169027602045e+18,0.004863071511535,0.002829302475255,0.00013558904179300003
1.7177169029602045e+18,-0.015097932180666665,0.005096230456409524,0.0015342057393809522
1.7177169031602045e+18,-0.00272775500779,0.0014654046740399998,0.00075304619963
1.7177169033602045e+18,-0.0021641508880800003,-0.0012358990265835,0.0002161265233550001
1.7177169035602045e+18,-0.006595226260365,0.0008959178580394999,-0.001624191494235
1.7177169037602045e+18,0.00373014779762,0.0002198165398420001,0.0006657752324915
1.7177169039602045e+18,0.006341807736572999,-0.005084134242459999,-0.0026946492495800002
1.7177169041602045e+18,0.00908022171385,-0.0067064367468,-0.003365598403595
1.7177169043602045e+18,0.003693085138422856,-0.005679593099752381,-0.006205226704758762
1.7177169045602045e+18,0.0061079794831499995,-0.00217241378286,-0.0032800550919149995
1.7177169047602045e+18,0.007571393070963502,0.006280074245850001,0.000165844149766
1.7177169049602045e+18,0.003566816716895,-0.007159834611249999,-0.003979773109624999
1.7177169051602045e+18,0.00034278899246700003,0.00432609473359,0.0023947855457614993
1.7177169053602045e+18,-0.0009259553684699999,-0.00062107230778,-0.00058658289490385
1.7177169055602045e+18,-0.0057975522941000005,-0.00010434242432499997,0.00043183706008549996
1.7177169057602045e+18,-0.0155311755837,-0.0007027846527819998,0.00033311452720999996
1.7177169059602045e+18,-0.007886797411428571,0.0027451892382833335,0.0004591430270476191
1.7177169061602045e+18,-0.0043726613483090005,-0.013050828489815,-0.001779618090935
1.7177169063602045e+18,-0.006929739518000001,-0.0006375692784649998,-0.0003147369366559999
1.7177169065602045e+18,-0.0027912457648050005,-0.0019366258636155,0.0005021805293749999
1.7177169067602045e+18,-0.007751988427713,-0.009982407931219999,0.0025379434809949994
1.7177169069602045e+18,0.006621581240300001,0.00011193188838950006,0.0025226950179800004
1.7177169071602045e+18,0.00906270339675,-0.0018322441260600006,-0.0011972129693600003
1.7177169073602045e+18,0.01547309889195238,-0.004615083503390476,-0.002732771947614286
1.7177169075602045e+18,0.020767728473700002,-0.00636145391065,0.0003564537619550001
1.7177169077602045e+18,0.0069498323374,-0.0033592284190299996,-0.0020803644787049996
1.7177169079602045e+18,0.0177245376975,-0.01154858403675,0.003197654511294501
1.7177169081602045e+18,0.017147027329200003,-0.011238921991880002,-0.0017009516595249997
1.7177169083602045e+18,0.0023905626379999998,-0.0028167076292,0.0002470169099900001
1.7177169085602045e+18,-0.004460091813305001,-0.0002955395030799999,2.624372135999998e-05
1.7177169087602045e+18,-0.0022543781835238095,0.00046888117983952385,-0.0009535563267857141
1.7177169089602045e+18,0.0006807575003499999,0.0019925372093299995,0.0013230414012549998
1.7177169091602045e+18,-0.00233163100206,0.00062506762334,-0.001462672255045
1.7177169093602045e+18,0.0019968842506,0.0029331433003939996,-0.00118591469947
1.7177169095602045e+18,0.0017974142975049998,-3.4446711740500075e-05,-0.0010941266432274999
1.7177169097602045e+18,-0.0023634412209699997,-0.0008346161223,-5.612479286500004e-05
1.7177169099602045e+18,-0.004546398986624999,0.00269408944298,0.000664781464694
1.7177169101602045e+18,-0.0005604777893053499,-0.0005927040475034999,0.0003742719883349999
1.7177169103602045e+18,0.0005968031916666666,0.0010314034187657141,0.0016272669614299999
1.7177169105602045e+18,0.0036848195013250004,-0.00260648874137,-0.0005968544864049999
1.7177169107602045e+18,-0.001778375561195,0.008276341716300002,-0.0006187414633635003
1.7177169109602045e+18,-0.0020701037372855002,0.00596429347045,0.0009187826886350002
1.7177169111602045e+18,0.008088830730556999,0.0029694423311224993,0.0004986923187699999
1.7177169113602045e+18,-0.000816389502175,0.0010767505154150002,-0.0008054185077200002
1.7177169115602045e+18,0.001304552308395,-0.00018696611522499973,-0.003968257433838
1.7177169117602045e+18,0.0006097502829190476,0.004261174738380953,-0.00016465760953261922
1.7177169119602045e+18,-0.0034322376803950006,0.0007080787793315002,0.00044735162513650004
1.7177169121602045e+18,-0.0057309998985500005,6.605673105000032e-06,0.0006035640719255001
1.7177169123602045e+18,-0.004663924564525,-0.00112095001384,-0.0005619413917645
1.7177169125602045e+18,0.0020906947494882503,0.0032709987833449998,0.001111896743525
1.7177169127602045e+18,0.00560686227395,-0.0008132083981860002,-0.00170475744517
1.7177169129602045e+18,0.004516056703746451,0.0031716141850789996,0.00026443412062650013
1.7177169131602045e+18,0.0058391510740999995,-0.00207739280308,-0.0013659940101150001
1.7177169133602045e+18,0.008522440989142857,0.00042944616594761914,0.000372536364
1.7177169135602045e+18,0.002970471192385,-0.00327232911959,-0.00050014861623
1.7177169137602045e+18,-0.00182951957099,-0.0015089162508439998,0.00042249868856900004
1.7177169139602045e+18,-0.0025119942147409998,-0.0013557138620250001,-0.0012264075455770001
1.7177169141602045e+18,-0.0115125130624,0.009241142496650001,0.006888496945649999
1.7177169143602045e+18,-0.010370152304000001,-0.0001471065566699999,-1.8739793535000044e-05
1.7177169145602045e+18,-0.004573045796055,0.0016070731100600003,0.0013839841820144998
1.7177169147602045e+18,-0.017006110377714285,0.004960613713704762,0.002342854404666666
1.7177169149602045e+18,-0.0121485357642,0.00259461489042,0.0017240210902299997
1.7177169151602045e+18,-0.007599801442150002,0.0034428059587849995,0.0022491820739099994
1.7177169153602045e+18,-0.0030490262782700006,6.834836671499999e-05,-0.00041812544226
1.7177169155602045e+18,0.002062950018435,0.0005671107676224999,-0.0006340936291600001
1.7177169157602045e+18,0.0038798143680500003,0.00034801502480150007,-0.0014294455293145
1.7177169159602045e+18,0.0057538589055550005,0.003838480741375,0.000799573701843
1.7177169161602045e+18,0.00761585889855,-0.0006548803416945,-0.00198113438671
1.7177169163602045e+18,0.009881336839857143,0.0007279785239000001,0.0009287017996333333
1.7177169165602045e+18,0.01262076832355,-0.00633835751815,-0.0018355797511589995
1.7177169167602045e+18,0.00732410673515,-0.001981302327525,0.0003247602726175
1.7177169169602045e+18,0.0023640409926824995,-0.0035764002356749995,-0.0012430746923499999
1.7177169171602045e+18,0.00020128656185000013,-0.001663288171325,0.0003652817919555
1.7177169173602045e+18,-0.004565329133695001,-0.003822699771275,-0.00140772277958
1.7177169175602045e+18,-0.0064543313465,0.0033673594007399997,9.9153514038e-05
1.7177169177602045e+18,-0.0034256330358571428,0.0021763707710828572,-0.0012846428434523812
1.7177169179602045e+18,-0.005247182631850001,0.0027681017994,0.00011407216085599996
1.7177169181602045e+18,-0.004546051513140001,0.00041191667551499997,0.0008462292666000001
1.7177169183602045e+18,-0.002642719060497,-0.0002209372702100001,0.0003002863261990001
1.7177169185602045e+18,0.0021735396815747,0.0015607170761094999,0.00097195416457
1.7177169187602045e+18,0.003992941841665,0.0017902351334287997,-5.808495915500002e-05
1.7177169189602045e+18,0.003661629700222,0.00075452349842,0.0006337459024065001
1.7177169191602045e+18,0.0066693512140000005,-0.0020720537518900003,-0.0022946135141399997
1.7177169193602045e+18,0.009576401384761908,0.002773156810982857,-5.674149328571422e-06
1.7177169195602045e+18,0.00509925845555,-0.0030908411718195,-0.001453021564495
1.7177169197602045e+18,0.0035819477576,-0.00038615772505,0.00052460627625
1.7177169199602045e+18,0.0030653386668,-0.0022730464464150004,0.00016097611514499996
1.7177169201602045e+18,0.0019860504660245003,0.0007416940294415,0.0004545956733500001
1.7177169203602045e+18,-0.004371925618130001,-0.0033750826376600005,-0.0013031560811449998
1.7177169205602045e+18,-0.006874875526449999,-0.0005767470924214999,0.0005615438916415
1.7177169207602045e+18,-0.002066325008342857,0.0038309887141476182,-0.0024443751290142857
1.7177169209602045e+18,-0.005147590616505,0.005825961963405001,0.00032933733892000016
1.7177169211602045e+18,-0.00795572991465,0.00132310737385,-0.00027675399325500003
1.7177169213602045e+18,-0.00503348945065,0.0009305342915999999,-0.000562767917375
1.7177169215602045e+18,-0.0124568820695,0.0036411653040550004,0.0006256887921835
1.7177169217602045e+18,-0.00270958577456,-0.00081401277562425,-0.00047270595679
1.7177169219602045e+18,-0.0022509207831814997,0.0012229130603550005,0.000354459474285
1.7177169221602045e+18,0.002264219598085,-0.00323677430857,-0.0012425629596654996
1.7177169223602045e+18,0.008169007282714287,0.0014504136606714284,0.0005090855605227619
1.7177169225602045e+18,0.0058948147925,0.0008445634040749999,-9.788968603700002e-05
1.7177169227602045e+18,0.004206600925,0.0008089591515900651,0.0008416631724250001
1.7177169229602045e+18,0.006598833599150001,-0.002593200909955,-0.0005908863618005
1.7177169231602045e+18,0.0050636694417905,-0.0026745347073850005,0.0032890121102749996
1.7177169233602045e+18,-0.001150346797685,-0.0013674797024699997,0.00050459961633
1.7177169235602045e+18,-0.0040920237778603,-0.002127294917515,0.00114028590032
1.7177169237602045e+18,-0.002337725530902381,-0.0011781352083452383,5.270353343333331e-05
1.7177169239602045e+18,-0.0044887248252,-0.0010270449565650001,-0.000842157175155
1.7177169241602045e+18,-0.006973329163700001,0.0017787727294020002,-0.00021353141630699995
1.7177169243602045e+18,-0.00582265523865,0.0006524431520025002,0.0011464001960250002
1.7177169245602045e+18,-0.002588978456305,0.0024102073513,0.001164929289275
1.7177169247602045e+18,-0.0053778582543505,-0.0012796032241849998,-0.00033262287034699996
1.7177169249602045e+18,-0.004724744544360001,-0.0017377146519701,-0.001147270051355
1.7177169251602045e+18,0.003120987175455,0.002218483423335,-0.00048055406076965006
1.7177169253602045e+18,0.00760742270242857,-0.0008906800232904762,-0.0002843195329666666
1.7177169255602045e+18,0.004377460520468,0.0027547445032950002,-0.0004498719121135499
1.7177169257602045e+18,0.00633403982505,0.00014571388016500008,-0.00048257944879500004
1.7177169259602045e+18,0.005901526147549999,0.000626936030925,0.00013009775416000002
1.7177169261602045e+18,0.0032781587622449995,-0.0027499671210309998,-0.000667840452025
1.7177169263602045e+18,-0.0020946527657,-0.0007083018893250001,0.00035874109018600004
1.7177169265602045e+18,-0.003915419138425,-0.00229825363502,-0.00013737868287500005
1.7177169267602045e+18,-0.0019111127891523808,-0.0006815076450190476,0.0005721076990987142
1.7177169269602045e+18,-0.006789168703950001,-0.0005000285571549999,-0.0010338875930349998
1.7177169271602045e+18,-0.0063838468165,0.002304075693196,0.000866327004063
1.7177169273602045e+18,-0.003620211582100001,-0.000571531674382,-0.0009753706224850001
1.7177169275602045e+18,-0.0032400749390550003,-1.606212470549996e-05,9.100951711500001e-05
1.7177169277602045e+18,-0.0050538822543649995,-0.0007510734839100001,0.000251325283995
1.7177169279602045e+18,-0.00145226020837,-0.0009777260477849999,-0.000632649497135
1.7177169281602045e+18,0.00018372507772,0.0010601341374625,0.000319799978788
1.7177169283602045e+18,0.0046229330168095235,-0.0010749620961857142,-0.001755259886838095
1.7177169285602045e+18,0.00459860601682,0.0013016374316769997,0.0006416255899836498
1.7177169287602045e+18,0.0083292915025,-0.0019041646388600001,-0.0013821816245744999
1.7177169289602045e+18,0.00940170032015,0.0009602398145800003,0.00043906464706935006
1.7177169291602045e+18,0.005579605134150001,-0.001556590036475,-0.0014639172761100002
1.7177169293602045e+18,0.00299563120927,0.0005270962487802,0.001349344692453
1.7177169295602045e+18,0.0047847269219519995,-0.0025667848996484997,-0.0003016241010299999
1.7177169297602045e+18,0.004037655125009524,-0.0011901460212047621,0.001847948224925714
1.7177169299602045e+18,-0.0004319948493185,-0.0019179279915849993,-0.0006040135573624999
1.7177169301602045e+18,-0.005426951008904999,-0.00181883991465,-0.0010187323204385499
1.7177169303602045e+18,-0.00566478116961,0.0021195859880254,9.8725914625e-05
1.7177169305602045e+18,-0.0093470733847,8.400236254500008e-05,-0.0015363929676684997
1.7177169307602045e+18,-0.0103991589746,0.0026190000237599994,0.0009728549514294998
1.7177169309602045e+18,-0.00639974214115,-0.00233793851223,-0.0013537934807535
1.7177169311602045e+18,-0.0018797031426909523,-0.0001279421572119048,0.0006108954327085715
1.7177169313602045e+18,-0.004523333796505,-0.00045898273832000006,-0.0002575932944062
1.7177169315602045e+18,-0.0034146799006949994,1.8388917713500025e-05,0.00042581352175799996
1.7177169317602045e+18,-0.000683874651435,0.0006806239020465,-0.00011980545242000005
1.7177169319602045e+18,0.00044044679671000005,0.001105142733999,0.000250646239175
1.7177169321602045e+18,-0.001490123523415,0.0017336559016550002,0.0009752393350675001
1.7177169323602045e+18,0.0021723224256825,0.000172200752544,-0.0008261465118100001
1.7177169325602045e+18,0.0060722117314,0.000618248991615,-0.0003417913394244998
1.7177169327602045e+18,0.00675461044347619,0.00015461479228761905,-0.0015500626537666667
1.7177169329602045e+18,0.005595669185450001,0.0019330163835050002,4.22132841799999e-05
1.7177169331602045e+18,0.00593051224715,-0.00076328876894,-0.00045677205783500006
1.7177169333602045e+18,0.0073631553038499995,0.001242139469905,0.00104502945909
1.7177169335602045e+18,-0.00010454902364999997,-0.003916536457825,-0.0005787806818400001
1.7177169337602045e+18,-0.0052456185979850006,-0.00119853407379,0.00133649392516
1.7177169339602045e+18,-0.0045909914887,-0.003856963058984999,-0.00123191097514
1.7177169341602045e+18,-0.004568171881573809,0.0017977231404333334,0.0011405347336285714
1.7177169343602045e+18,-0.007066426914900001,0.001528270728945,0.00038017928019
1.7177169345602045e+18,-0.007221494172749999,0.00015343400878500005,4.460042111100017e-05
1.7177169347602045e+18,-0.003140921954815,0.0014554448658585,-0.0003437941544850001
1.7177169349602045e+18,-0.00315227966052,-0.000293247599627,-0.0005022584926350001
1.7177169351602045e+18,-0.0030297695775449995,0.000481352477865,0.0012593058171149999
1.7177169353602045e+18,0.0034661641024499997,-0.00011049592868000004,-0.0017914962022949998
1.7177169355602045e+18,0.0077948873397,-0.00026735467839835,-0.0009658188850725001
1.7177169357602045e+18,0.007078636947809525,-0.000653114690895238,-0.0009423952572047618
1.7177169359602045e+18,0.0050326384022500005,0.00161452419116325,-0.0003554706636049999
1.7177169361602045e+18,0.0078833969778,-0.0016117540070899998,-0.001316180621516
1.7177169363602045e+18,0.008222487964999999,-0.00012520344463149997,0.00102798071449
1.7177169365602045e+18,0.001156708021905,-0.000696121843109,-8.458841477849998e-05
1.7177169367602045e+18,-0.0011145838769049997,0.00042242137716700013,0.0009341743659595
1.7177169369602045e+18,-0.0015131515014399999,-0.002573204971905,-0.0002844004484475
1.7177169371602045e+18,-0.00423314093632619,-0.0025844005424538095,-0.0006968576372238095
1.7177169373602045e+18,-0.0073736732009,0.003991913818704999,0.00134501628931
1.7177169375602045e+18,-0.0059728528023,0.0008973843068490001,-6.135303988510002e-05
1.7177169377602045e+18,-0.0033060529909600006,0.0018179637728635,0.0006151426292699999
1.7177169379602045e+18,-0.005413721944200001,-0.0014045719407099998,-0.0001838435012155
1.7177169381602045e+18,-0.00487619865446,0.0007629581727724999,0.00032279610164000005
1.7177169383602045e+18,-0.0011347815481625,0.0033982965279844997,-0.00064484049795945
1.7177169385602045e+18,-0.0015408062317380001,0.00026040591761000004,-8.084558645199996e-05
1.7177169387602045e+18,-0.0013371259195695238,-0.0011822777312033334,-0.00019107090436666665
1.7177169389602045e+18,0.0011921190365850002,-0.000543008872745,-0.00047588779704499997
1.7177169391602045e+18,0.0075885397033,0.00053227224859,-0.00044627799068300007
1.7177169393602045e+18,0.0081696453502,0.00247260107424,-0.001024451095053
1.7177169395602045e+18,0.006232901255214999,0.0010131130111000002,-0.0007686056254150002
1.7177169397602045e+18,0.003964196407505,0.00012013771335945009,7.846993386500002e-05
1.7177169399602045e+18,0.005469086562549999,-0.00042893344075000013,0.0004147771512570001
1.7177169401602045e+18,0.0014552327698404762,-0.003162725739952381,-0.00020969461740476188
1.7177169403602045e+18,-0.0040724763529430014,-0.000810401746975,1.215533121200006e-05
1.7177169405602045e+18,-0.0046746579581,-0.0035383322391999996,1.3254483920000014e-05
1.7177169407602045e+18,-0.0034572863717899998,0.0002715688547800001,-7.777026675000035e-06
1.7177169409602045e+18,-0.005243489332537,-0.0009108668543999999,0.00011759203633750009
1.7177169411602045e+18,-0.0070760121103000005,0.0008614600169499999,0.0011927473358190003
1.7177169413602045e+18,-0.004717216023650001,-0.0018504008883905,-0.0012902498245200003
1.7177169415602045e+18,-0.0018615889654,0.0005143144167985001,0.000517593475459
1.7177169417602045e+18,-0.0035071725392809526,-0.0005242528527333334,0.00016976706137952378
1.7177169419602045e+18,-0.0029314806859949997,-0.00095320018016,-7.361116572500003e-05
1.7177169421602045e+18,0.0002122335542845,0.00123468972736415,0.00037533263669150006
1.7177169423602045e+18,0.003657667612349999,0.00045508344205250013,-0.00045088148917050015
1.7177169425602045e+18,0.00365912442509,1.9905832630499995e-05,8.327390539499995e-05
1.7177169427602045e+18,0.004907341819423499,0.0008028396520549997,-0.0009471096680999999
1.7177169429602045e+18,0.00848289683935,0.0021392024354720002,-0.0010106853150815
1.7177169431602045e+18,0.008335206037095236,-0.0006755193186095239,-0.001470992446934762
1.7177169433602045e+18,0.00545155727885,-0.000485049607225,0.00051248230742
1.7177169435602045e+18,0.00435654387685,0.000486589875035,0.0008646836503855001
1.7177169437602045e+18,0.00292231312781,-2.952006176999999e-05,0.00139580715914
1.7177169439602045e+18,-0.0028505878639345,-0.0040370526839550004,-0.001035901642228
1.7177169441602045e+18,-0.00565634797117,-0.0006962510989450001,0.0009381162992350001
1.7177169443602045e+18,-0.00445129942073,-0.0015982170472999997,-8.349491978550005e-05
1.7177169445602045e+18,-0.0018597060406,0.00085900530691,0.00054054851646
1.7177169447602045e+18,-0.0041332617401,-0.0006095343157952378,-0.0007810034854971429
1.7177169449602045e+18,-0.011500489365465001,0.0007898195646720001,0.0026722688112650003
1.7177169451602045e+18,-0.051952228882,0.00305928325983,0.00044712033139999996
1.7177169453602045e+18,-0.06464660000050002,0.01063654150325,-0.0185270619575
1.7177169455602045e+18,-0.041767378429999995,-0.015076233726500002,-0.013500848574350003
1.7177169457602045e+18,-0.058258761465999995,0.0119210586074,0.007912589004234999
1.7177169459602045e+18,-0.01714146300165,-0.005028130113200001,-0.011572791157799998
1.7177169461602045e+18,0.016735521710476195,0.02843394995238095,0.005608400352047617
1.7177169463602045e+18,0.002918371191475,0.01878440177615,-0.035977949876444995
1.7177169465602045e+18,0.0030860930911499997,0.0174079112836,0.013890839915499997
1.7177169467602045e+18,-0.010086842610049999,-0.007406321249399999,0.0008977485238400001
1.7177169469602045e+18,-0.014448708935999999,0.015442621870554998,0.0161893890474
1.7177169471602045e+18,-0.0236397287216735,0.054251871984325004,-0.002558133879195
1.7177169473602045e+18,-0.011569556761865002,-0.024268791940600002,-0.023559570009849998
1.7177169475602045e+18,0.0016763942782199999,-0.013951830287800004,-0.004883415159549999
1.7177169477602045e+18,0.0014272229578904763,0.017618498188105243,0.0013492161838085717
1.7177169479602045e+18,-0.0023462181940264995,-0.00611466027295,0.003516034129900001
1.7177169481602045e+18,0.002784341943125,0.001319818967035,0.016882870264814998
1.7177169483602045e+18,0.01260002009185,-0.019828866014600002,0.001305391558035
1.7177169485602045e+18,0.02413451669345,-0.0011746286176000005,0.0019844253317499996
1.7177169487602045e+18,0.006002079520699999,-0.00394256191764,0.008194148749840001
1.7177169489602045e+18,-0.0021565438890049997,0.03373301709135,0.017293256801000002
1.7177169491602045e+18,-0.006773307398185715,-0.002238335286985714,0.005988685691480954
1.7177169493602045e+18,-0.00436386720706,-0.0110762601487,-0.0093923293759
1.7177169495602045e+18,0.0018342111725749995,0.0158258423443,-0.007124988950269001
1.7177169497602045e+18,-0.0035444538572,0.015457169246149996,0.006449894676649999
1.7177169499602045e+18,-0.007590673758841501,-0.0015082000987200004,-0.0033818422118100004
1.7177169501602045e+18,-0.009040156519100001,0.013089539436,0.0059831331126400005
1.7177169503602045e+18,-0.008616511582650001,0.012211884884199999,-0.0078574100045885
1.7177169505602045e+18,-0.0022196567209685,-0.0024852070608150003,0.006269816693599999
1.7177169507602045e+18,0.004208157360047619,-0.0017756438103495235,-0.004115619585787142
1.7177169509602045e+18,0.0043191628064899994,0.00248254709878,-0.0006085022759999999
1.7177169511602045e+18,0.0028583767359700004,-0.003859696432405,-0.00228552417831
1.7177169513602045e+18,3.7466193355000105e-05,-2.2765388749999968e-05,-0.000244456296795
1.7177169515602045e+18,-0.0032713476888250005,0.004095313290195,-0.004305402276837999
1.7177169517602045e+18,-0.003464621116285,0.012564106494579999,0.0043092927547200505
1.7177169519602045e+18,-0.00646539553703,4.726357298022494e-05,-0.0012022536189849999
1.7177169521602045e+18,-0.0012544718505285717,0.0044316001503047625,0.006579350458095237
1.7177169523602045e+18,0.001176715362785,-0.0135111856269,-0.0021379269835050006
1.7177169525602045e+18,0.00121521598786,0.007050573220090001,-0.00048351444417999996
1.7177169527602045e+18,0.0019017358048749999,0.006637028767665,-0.0020911179657794993
1.7177169529602045e+18,-0.00266138089937,-0.0011599831631399998,-0.0014154873089999998
1.7177169531602045e+18,-0.006475216522985,-0.006923563034,-0.00196755260655
1.7177169533602045e+18,0.00099456631877,-0.003186802787515001,-0.001395790145125
1.7177169535602045e+18,-0.0038201980119849993,0.00285900286365,-3.963505133500003e-05
1.7177169537602045e+18,-0.004163948378295239,-0.002531634067019048,0.0004619323935619046
1.7177169539602045e+18,-0.0051424064852518,0.00205297195395,0.0066139622932
1.7177169541602045e+18,-0.0027404790860699997,0.0044401307829749995,0.0003838080561727499
1.7177169543602045e+18,0.0032628760470400004,0.0012910748016149998,-9.191550776699995e-05
1.7177169545602045e+18,0.004356749355854999,-0.01138496249875,-0.004333192296585001
1.7177169547602045e+18,0.003922740483585,0.0005751911084350001,0.006978743569934999
1.7177169549602045e+18,0.0038255058460550002,-0.0101442892113,-0.0079775343764915
1.7177169551602045e+18,0.004248090015761905,0.004576842333795237,0.005471817506095238
1.7177169553602045e+18,-0.000955668685475,-0.003328902413905001,-0.003019657148999
1.7177169555602045e+18,0.0013765349344040004,0.00294494862907,0.002730868838185
1.7177169557602045e+18,-0.00027871216006399995,-0.000284948979924,-0.0013379065669150002
1.7177169559602045e+18,-0.001549644104747,0.004096840799275,0.0016866391175399998
1.7177169561602045e+18,-0.0007127164047174999,-0.00145561394744,0.00155186644983
1.7177169563602045e+18,-0.001336244485011,-0.0027488637483300002,0.00274632752407
1.7177169565602045e+18,-0.0023575512514619045,-0.0021412797116504762,-0.0016696156733761905
1.7177169567602045e+18,-0.00294808108007,0.004110261739200001,0.003144111495792
1.7177169569602045e+18,0.00057878856905,-0.001257711602311,-0.00143018473756
1.7177169571602045e+18,0.00458727231332,-0.0021780414393349997,0.000940122752171
1.7177169573602045e+18,0.0067698354132999985,-0.009416279568809999,-0.006681686174035001
1.7177169575602045e+18,0.00405689983734,-0.0011890087977150003,0.00020448138234499996
1.7177169577602045e+18,0.00395440331774,-0.00295981381781,-0.002353188529425
1.7177169579602045e+18,0.0030954015208200006,0.0021824005060799997,0.0012500765849450001
1.7177169581602045e+18,0.00028240473921785716,0.0015423866875476189,0.0008731711367857143
1.7177169583602045e+18,-0.005711327521895,0.00408835576373,0.0017056718700689997
1.7177169585602045e+18,-0.0023065331828539997,0.004195849713715,-0.001402370538585
1.7177169587602045e+18,-0.0032905906990350004,0.0170068944331665,0.00497659379583
1.7177169589602045e+18,-0.0033470413531800003,0.0005411998133700001,-0.0004915061407099999
1.7177169591602045e+18,-0.0029641465692149998,0.004830797110054999,0.00022706270688950016
1.7177169593602045e+18,0.0009188326047100001,0.004789661290749999,0.0008094973397950001
1.7177169595602045e+18,-0.0005632362388476189,-0.01252625321542857,-0.006606652257380953
1.7177169597602045e+18,0.035856721365515,-0.0724211372415,-0.0095303282373
1.7177169599602045e+18,0.6372545741450001,-0.19590728096249999,0.0075355447838
1.7177169601602045e+18,0.909795758145,-0.1028732808205,-0.0486466566142
1.7177169603602045e+18,0.402965693185,-0.01509080387465,-0.0290270505007
1.7177169605602045e+18,0.430242991445,-0.13254436980849998,-0.014623266877450006
1.7177169607602045e+18,0.061253617229,0.004298377375085002,0.045872013692
1.7177169609602045e+18,0.014541393426499998,-0.014034103041399997,0.0901396531685
1.7177169611602045e+18,-0.3858912362780953,0.19701031975857147,0.05842475115823811
1.7177169613602045e+18,-0.5404663756450001,-0.138536774358,-0.1001620961315
1.7177169615602045e+18,-0.49282305389000003,-0.08127054504709999,-0.023149315454065
1.7177169617602045e+18,-0.15345442564700001,-0.29450425208000003,-0.12987452225399998
1.7177169619602045e+18,0.2580713973039,-0.15073796087719998,-0.132730559451
1.7177169621602045e+18,0.515942110115,0.1774997077899,-0.0393907926047
1.7177169623602045e+18,0.47143536359000004,0.19427192471250002,0.01001443751255
1.7177169625602045e+18,0.411628957304762,0.15898741009776188,0.011895678428238096
1.7177169627602045e+18,-0.003661314806150001,0.0960049645284,0.054195974956999994
1.7177169629602045e+18,-0.45314933955500003,0.25793239000050006,0.09976566628500001
1.7177169631602045e+18,-0.7320592582300002,0.0431777971815,-0.0522654954702
1.7177169633602045e+18,-0.568318022785,-0.031831993419850005,-0.0777386251523
1.7177169635602045e+18,-0.183786928653,-0.04660722648224999,0.05209405501599999
1.7177169637602045e+18,0.2638016087825,-0.0552611910361,0.004043677101850001
1.7177169639602045e+18,0.536026245345,-0.20919668748500003,-0.088233689591
1.7177169641602045e+18,0.6630303348904762,-0.21135699783857143,-0.07109111565380952
1.7177169643602045e+18,0.60087267011,-0.19681915733605,-0.018702560384872002
1.7177169645602045e+18,0.04203351801135,0.206684153515,0.0126966931645
1.7177169647602045e+18,-0.33264839835999993,0.11851173518684996,0.045618333131950004
1.7177169649602045e+18,-0.839833304275,0.09459421088259999,0.006275158026299998
1.7177169651602045e+18,-0.8919654160549999,0.155146047654,0.059054431229000004
1.7177169653602045e+18,-0.36217975391999996,0.057710192369000005,0.015952691537614996
1.7177169655602045e+18,0.21043698360538093,-0.19910220091428574,-0.060687608927619034
1.7177169657602045e+18,0.40103156715,-0.2797182078449,-0.173250094056
1.7177169659602045e+18,0.5283326014849999,-0.1636361127717,-0.08661136757650001
1.7177169661602045e+18,0.687425032255,-0.06468358617050002,-0.1065474980484
1.7177169663602045e+18,0.42238858453,0.18163486123099998,0.029253277007634998
1.7177169665602045e+18,-0.0721092348535,0.028322570467500002,0.019437937111846503
1.7177169667602045e+18,-0.3230858087605,0.139316170476,0.052122609433549995
1.7177169669602045e+18,-0.61945466698,0.1274811730605,0.029798549693500005
1.7177169671602045e+18,-0.3839491605619047,-0.059602332916761924,-0.02669831611463809
1.7177169673602045e+18,-0.0443258728985,-0.12061758553049999,0.056928519159500014
1.7177169675602045e+18,0.23917134554499997,-0.1684293513205,-0.09102562403630002
1.7177169677602045e+18,0.392877329895,-0.029660371105099996,-0.043587846309000006
1.7177169679602045e+18,0.508202578115,0.022164255078035,-0.0825926341055
1.7177169681602045e+18,0.42648896724000007,0.200266668195,0.002223986805750001
1.7177169683602045e+18,0.11200450672964998,0.2669331342,0.028294871379049995
1.7177169685602045e+18,-0.07523923224904762,0.015130614285238092,-0.0006782017711428575
1.7177169687602045e+18,-0.47761032432500006,-0.04199264189449999,0.033959945291335
1.7177169689602045e+18,-0.5365687578949999,-0.14566196458646,-0.004662083169849999
1.7177169691602045e+18,-0.5045271709600001,0.0683349859875,0.05584582742250001
1.7177169693602045e+18,-0.2953845627749999,0.004062142024810003,0.04398158826049999
1.7177169695602045e+18,-0.36091408655000007,0.05394238461999999,0.03248873016579999
1.7177169697602045e+18,-0.42753621487999993,0.24604905694999996,0.05582901223600001
1.7177169699602045e+18,-0.0345161930179,0.1460162488735,0.003105889493750001
1.7177169701602045e+18,-0.013587257550404762,0.012533167699285712,0.009750377630209524
1.7177169703602045e+18,0.00012309020350000053,0.0255660815866,0.006099053599961
1.7177169705602045e+18,0.009383107954599998,-0.009647414415899998,0.006660463567799998
1.7177169707602045e+18,,,
