Timestamps,Acc_X,Acc_Y,Acc_Z
1.7176749735604027e+18,-2.427212527988372,2.832044717860465,9.80717836422093
1.7176749737604027e+18,-1.4803225093139536,3.4334222550348845,8.802749334348837
1.7176749739604027e+18,-0.18686274965616284,3.8434296319418597,8.535087086476745
1.7176749741604027e+18,1.4867592339847058,1.856323651209706,9.650169282564706
1.7176749743604027e+18,0.8636976801722093,0.03934245081197673,10.03605458916279
1.7176749745604027e+18,2.117369800160465,1.8257793208546518,9.152324033337209
1.7176749747604027e+18,2.2612730416744187,1.8882709435363956,9.365619144
1.7176749749604027e+18,2.6806932715176472,-0.31337531506441174,9.577089646129412
1.7176749751604027e+18,4.6827539260813955,0.5362148594084883,9.99248304483721
1.7176749753604027e+18,6.207816628453489,7.544291534895349,9.879630798488373
1.7176749755604027e+18,5.920065802197675,3.023526182383721,5.555132527674419
1.7176749757604027e+18,1.664560026005765,8.17596530364706,5.827058018109412
1.7176749759604027e+18,2.5292135261930233,8.894010504965115,3.904029272302326
1.7176749761604027e+18,1.7957855743616278,8.041553525151166,2.3650547579348835
1.7176749763604027e+18,3.1794491812325583,10.011124732709304,2.5023360122511633
1.7176749765604027e+18,2.239118975737647,9.58362057637647,0.39366154865674113
1.7176749767604027e+18,2.169121552382558,9.669785865511628,1.1628561510924418
1.7176749769604027e+18,1.6775912559222093,9.639792031860464,1.4143807696642443
1.7176749771604027e+18,1.48529537632,9.537678460564704,1.4830433206924707
1.7176749773604027e+18,2.338121602697675,9.334901998244183,2.1589381472906983
1.7176749775604027e+18,2.3242654814046513,9.710018634709302,1.249109065488372
1.7176749777604027e+18,1.5315177845883723,9.907009124906978,1.0779944221802327
1.7176749779604027e+18,1.2488845187105884,9.77617249202353,1.7964749350470588
1.7176749781604027e+18,1.688831958283721,9.385707711139533,2.801717080372093
1.7176749783604027e+18,4.068410607302326,7.220203183430233,4.699169804883722
1.7176749785604027e+18,2.889806334313953,6.138035275255813,5.735595880523256
1.7176749787604027e+18,3.008425530305882,5.619980352094117,6.968012125364706
1.7176749789604027e+18,2.1111373471511627,5.669988016744186,8.092581832139535
1.7176749791604027e+18,1.8878257731744188,4.2713553683604655,8.13798980932558
1.7176749793604027e+18,1.6527726836833725,5.527197721395348,8.818775676151162
1.7176749795604027e+18,-1.2895343514142354,8.49863037192941,9.76969780102353
1.7176749797604027e+18,-2.9936993727706978,1.9542126965345932,7.674116129127907
1.7176749799604027e+18,1.4723649750968606,1.8404701411020006,9.496000178860466
1.7176749801604027e+18,1.6044298105129409,3.012310339395294,10.26841834564706
1.7176749803604027e+18,2.2324478790046514,-0.253305318627093,8.407822281825583
1.7176749805604027e+18,-0.43232184068639534,2.6024450465813955,9.18048139494186
1.7176749807604027e+18,0.5773936721213953,4.874402329543954,10.432539807081396
1.7176749809604027e+18,-0.8950845751390233,3.149742819270589,9.335273860541177
1.7176749811604027e+18,-1.1761001455579418,3.3523445226046515,9.404405083627909
1.7176749813604027e+18,-2.789864258088605,3.850830674186046,8.399197023976745
1.7176749815604027e+18,1.8036874476593026,1.4870557996988372,8.41322008955814
1.7176749817604027e+18,1.2502920491662706,3.471957516682352,8.70463838022353
1.7176749819604027e+18,-0.4998217009846511,4.409026154197673,8.872419445976744
1.7176749821604027e+18,-1.1441031023918604,4.214372812348838,9.48147621823256
1.7176749823604027e+18,-1.4691374510093025,4.40006694122093,9.50201004604651
1.7176749825604027e+18,-2.2198074971647057,3.357496129764706,8.980516759070587
1.7176749827604027e+18,-3.504817388744186,2.046419847860465,9.526605983116278
1.7176749829604027e+18,-3.478663317011628,0.8027085269076746,9.646080216697673
1.7176749831604027e+18,-2.8523002280465115,0.2115143922359302,9.708627445465117
1.7176749833604027e+18,-1.2614960964788235,-1.0496327701307646,9.938265138364706
1.7176749835604027e+18,-0.6683209292383722,-1.2943501091186045,9.899775017
1.7176749837604027e+18,-0.7488978394488374,-1.5487127248523258,9.53617734683721
1.7176749839604027e+18,-0.7839449965164708,-1.7322909944494123,9.841876590858824
1.7176749841604027e+18,-1.0239055011104652,-0.8439429783057558,9.892763559034885
1.7176749843604027e+18,-0.8025415879302327,-1.4306297080813957,9.688149308104654
1.7176749845604027e+18,-0.5821236645709302,-1.1023121816162793,9.84924755545349
1.7176749847604027e+18,-0.5998384146082352,-1.1479918480364708,9.774877548211764
1.7176749849604027e+18,-0.6233024756534884,-1.1290784021244191,9.806343644255815
1.7176749851604027e+18,-0.8219067496255812,-1.4060893627790696,9.842013381267442
1.7176749853604027e+18,-0.47166429667441856,-1.174486380767442,9.801168508313953
1.7176749855604027e+18,-0.052022779562952946,-1.2730379512,9.803872927258825
1.7176749857604027e+18,-0.3518562247912442,-1.2037010803139536,9.772176387674417
1.7176749859604027e+18,-0.621744360339535,-1.1226233507093026,9.791652879046511
1.7176749861604027e+18,-0.4305967813290697,-1.2298551978255812,9.799999813697676
1.7176749863604027e+18,-0.48019727854,-1.1709629550235294,9.80010070802353
1.7176749865604027e+18,-0.5149576892627908,-1.1973573191511628,9.80957113311628
1.7176749867604027e+18,-0.5393310948151162,-1.1906796708372096,9.814301158000001
1.7176749869604027e+18,-0.5523760718399999,-1.1954541893999997,9.810009832894117
1.7176749871604027e+18,-0.5698813213837208,-1.204146260465116,9.79727324767442
1.7176749873604027e+18,-0.6059405990813953,-1.2005292010930235,9.743963285965117
1.7176749875604027e+18,-0.552964616217442,-1.3959616048372094,9.80979380522093
1.7176749877604027e+18,-0.20944235936000005,-1.3595173758341177,9.844466444941176
1.7176749879604027e+18,-0.5703821421313954,-1.245213770627907,9.807734888686047
1.7176749881604027e+18,-0.5120640449011629,-1.2622417669418606,9.80250406261628
1.7176749883604027e+18,-0.37272386070837216,-1.1749872149767442,9.79499167065116
1.7176749885604027e+18,-0.653212430195294,-1.031841418317647,9.826055762352942
1.7176749887604027e+18,-0.2708897827989535,-0.913167896633721,9.792431886755814
1.7176749889604027e+18,-0.4647640622267442,-1.2045357927709304,9.828936343860466
1.7176749891604027e+18,-0.4094509053486045,-0.9060450737151162,9.837951161069768
1.7176749893604027e+18,-0.3585292828452941,-1.0695635683458824,9.804379620411767
1.7176749895604027e+18,-0.3587564555674419,-1.0970257112255815,9.839286682232556
1.7176749897604027e+18,-0.5456192108767441,-0.9562943515302326,9.87317569861628
1.7176749899604027e+18,-0.5893662938352942,-1.0702954902788233,9.808489687223531
1.7176749901604027e+18,-0.5254193357232558,-0.8201816983034883,9.874733913627907
1.7176749903604027e+18,-0.5248072164651163,-0.8690954398465114,9.825263666534884
1.7176749905604027e+18,-0.6042155398116278,-0.8187348752534888,9.848691030906977
1.7176749907604027e+18,-0.5717438585552943,-0.8312947392517649,9.826224663682353
1.7176749909604027e+18,-0.5855181383511628,-0.7393265560558139,9.846131302581398
1.7176749911604027e+18,-0.5771154331627907,-0.7530157198755815,9.815080232337209
1.7176749913604027e+18,-0.5172392216511628,-0.7419419635162791,9.853587960151163
1.7176749915604027e+18,-0.5383006459638825,-0.6801809496776471,9.826055818470588
1.7176749917604027e+18,-0.5053864014001163,-0.9624155275011628,9.88547373922093
1.7176749919604027e+18,-0.6280324708534885,-0.8435534536918606,9.834723694337208
1.7176749921604027e+18,-0.7355981999302326,-0.6764453954360465,9.822926432662788
1.7176749923604027e+18,-0.7712771131835293,-0.7354692269823531,9.859442733329413
1.7176749925604027e+18,-0.42024643126587213,-0.9315870640104649,9.839564955488374
1.7176749927604027e+18,-0.9944125725767442,-0.9734892838139539,10.375612868976743
1.7176749929604027e+18,-1.5332428422988371,-0.23455226372383725,10.789960716802325
1.7176749931604027e+18,-0.4977071086236472,2.0193171078894117,11.012726918505884
1.7176749933604027e+18,0.012242349236069767,1.6298461112674423,9.48420292833721
1.7176749935604027e+18,0.8318675746506977,2.602500677116279,5.597312979930233
1.7176749937604027e+18,0.7479119050681176,2.3606743615999997,7.842546580811764
1.7176749939604027e+18,-0.5525194419604652,0.8342603918689188,10.827856296674419
1.7176749941604027e+18,-0.5968144827418606,-0.9577968231441859,11.550544450116279
1.7176749943604027e+18,-0.8258020487240697,-2.0429140669174424,12.27679393476744
1.7176749945604027e+18,-0.2518938479163529,-0.41961663943961175,10.420770757541177
1.7176749947604027e+18,0.35163363596079067,1.2791028253255814,8.565470346186045
1.7176749949604027e+18,0.4985418136918604,2.7621520341279076,5.088142583581395
1.7176749951604027e+18,-0.3084515346092674,1.3919550159465117,9.827433879872094
1.7176749953604027e+18,-1.0124736344258825,0.23995788563870585,10.6130410696
1.7176749955604027e+18,-1.5958457665406978,-1.457562874533721,12.71395703267442
1.7176749957604027e+18,-1.3217284534406977,-0.8883493193116277,11.537689962860464
1.7176749959604027e+18,-0.41223325684999995,0.5383294473431744,9.977013166767444
1.7176749961604027e+18,0.47445450021364716,2.3436149386470593,6.668543333199999
1.7176749963604027e+18,0.4355493690220115,2.3624393815000007,6.494009333953488
1.7176749965604027e+18,-0.5614229717488373,0.9379864714639538,10.275837743209301
1.7176749967604027e+18,-0.8897922129823177,-0.0419447739827647,10.495257994647059
1.7176749969604027e+18,-1.4413139370034882,-2.149978968953488,13.447218062906977
1.7176749971604027e+18,-1.4034183039104648,-0.7286979677181397,10.719455974093021
1.7176749973604027e+18,-0.6589722236872092,0.6416659956360466,9.772844148430234
1.7176749975604027e+18,0.27981949477074114,2.6318234022705886,6.597772087788234
1.7176749977604027e+18,0.2557537871078256,2.3967735906046514,7.054987175500002
1.7176749979604027e+18,-0.6093350700738372,1.2395934289488368,10.174893967034881
1.7176749981604027e+18,-1.2410958890470116,0.6364351736125233,10.326532175651161
1.7176749983604027e+18,-1.390258104707059,-1.7569511318694115,12.865841371647056
1.7176749985604027e+18,-1.0541218471000002,-0.7890193553976744,11.211320089534883
1.7176749987604027e+18,-0.2806836602568605,0.4590880640206162,9.825708833116277
1.7176749989604027e+18,0.21090227420108137,1.8991221224337211,8.273379059744187
1.7176749991604027e+18,0.5061523663769413,2.739247052776471,6.098995247964707
1.7176749993604027e+18,0.04412810066860464,1.6860496096744184,9.300567776372093
1.7176749995604027e+18,-0.8145613426202326,1.058517963805116,10.365707718511628
1.7176749997604027e+18,-1.0870170964128234,-0.05010852157454119,10.559104055882354
1.7176749999604027e+18,-1.238424835868605,-0.009181763690406974,10.890904415581394
1.7176750001604027e+18,-0.564984380807093,-0.903707903876744,9.976456675302327
1.7176750003604027e+18,-0.38502185950773266,-0.9515643549220931,9.831996906651163
1.7176750005604027e+18,-0.23562265287844705,-0.8546036471435297,9.871153461435295
1.7176750007604027e+18,0.06972573891225582,-1.1857270861686044,9.856815548651166
1.7176750009604027e+18,0.13739253698994186,-0.9479472935127905,9.846465199697674
1.7176750011604027e+18,-0.6615319868104652,-1.358455492254651,9.746411800255816
1.7176750013604027e+18,-0.5296864768492353,-1.238919115082353,9.829715403388235
1.7176750015604027e+18,0.3017182427481627,-1.2616296507709301,9.830438813558139
1.7176750017604027e+18,0.010183408152976746,-1.5978490529534883,9.848357145313953
1.7176750019604027e+18,-0.23538697418247675,-1.2729816437790697,9.782248508023256
1.7176750021604027e+18,-0.411621797782353,-1.233795658352941,9.791148769129412
1.7176750023604027e+18,-0.24033955744302324,-1.2292987205581396,9.800055548104652
1.7176750025604027e+18,-0.29275906727209305,-1.1966895489302325,9.79721747994186
1.7176750027604027e+18,-0.28910927702588235,-1.1996205133999998,9.800607423176473
1.7176750029604027e+18,-0.29598659727209303,-1.231190718895349,9.806621884139533
1.7176750031604027e+18,-0.3826846818267442,-1.2629651801279067,9.785976875593024
1.7176750033604027e+18,-0.35441598651337214,-1.2434887111046509,9.800445035453489
1.7176750035604027e+18,-0.21084990175225884,-1.2766412553294118,9.8084896424
1.7176750037604027e+18,-0.44784736216860477,-1.2093214323488375,9.814134253988373
1.7176750039604027e+18,-0.36621315742790705,-1.3136596388720927,9.819142485732558
1.7176750041604027e+18,-0.5227482734732558,-1.241986248453488,9.805175049313954
1.7176750043604027e+18,-0.3014956545384118,-1.2082909794470587,9.803366212223532
1.7176750045604027e+18,-0.1585940583633372,-1.2429322448255815,9.83383331734884
1.7176750047604027e+18,-0.03633751455810466,-1.232971424267442,9.792042377383721
1.7176750049604027e+18,-0.11157231177637211,-1.2575117723604652,9.836838189918605
1.7176750051604027e+18,-0.17537982360717644,-1.0498579698776471,9.816766054470587
1.7176750053604027e+18,-0.2676622545313953,-1.1405416990232562,9.824317665988373
1.7176750055604027e+18,-0.2494656717325581,-1.082390540443023,9.796048951639536
1.7176750057604027e+18,-0.24306626323255812,-1.0806098344418607,9.833165523604652
1.7176750059604027e+18,-0.2847740451235294,-1.034825421062353,9.8116988686
1.7176750061604027e+18,-0.22626085683255817,-1.086897953965116,9.820700612186046
1.7176750063604027e+18,-0.31529611903604654,-1.1043711207209304,9.834612347406978
1.7176750065604027e+18,-0.30014441293529415,-1.1195594899764707,9.825999518011765
1.7176750067604027e+18,-0.2794594258732558,-1.1255726453837211,9.829548414313955
1.7176750069604027e+18,-0.3123468266348837,-1.1461063956627908,9.815581099953489
1.7176750071604027e+18,-0.31813411761279076,-1.1705354383720932,9.827211191465116
1.7176750073604027e+18,-0.28111443572,-1.173383921764706,9.841876568470587
1.7176750075604027e+18,-0.3211947052313953,-1.136702049627907,9.811574459081394
1.7176750077604027e+18,-0.3509658710151163,-1.1474419236511628,9.816304461883721
1.7176750079604027e+18,-0.34773834188488373,-1.1348100471511626,9.815135889232558
1.7176750081604027e+18,-0.3303784307317647,-1.1408415304352941,9.822452432952941
1.7176750083604027e+18,-0.32525693884999995,-1.1371472270232559,9.816304484034884
1.7176750085604027e+18,-0.36209527801162794,-1.1303582898372093,9.801224143011627
1.7176750087604027e+18,-0.3509658703244186,-1.1456612196162792,9.818641651488372
1.7176750089604027e+18,-0.3486201843776471,-1.1307635334941177,9.815302175647059
1.7176750091604027e+18,-0.32514564432674414,-1.1707023812441861,9.818530337709303
1.7176750093604027e+18,-0.323253645455814,-1.2005291997790697,9.821646634883722
1.7176750095604027e+18,-0.30340991125176464,-1.1745099544588233,9.814232444752943
1.7176750097604027e+18,-0.301829535605814,-1.1914587354186048,9.816360152
1.7176750099604027e+18,-0.3107330608523256,-1.2205064920930233,9.81274313145349
1.7176750101604027e+18,-0.31284764894767436,-1.1981363809418606,9.809348594290698
1.7176750103604027e+18,-0.3153458719764706,-1.2014784673529413,9.814345068082353
1.7176750105604027e+18,-0.3300982310081395,-1.233138368604651,9.815692402558138
1.7176750107604027e+18,-0.2809062473686047,-1.236811072383721,9.806287987232558
1.7176750109604027e+18,-0.32520129133255815,-1.2139957921511628,9.816248827139535
1.7176750111604027e+18,-0.26191555103529407,-1.2694346373176473,9.821270168470589
1.7176750113604027e+18,-0.29515188915813956,-1.2331940226744185,9.82053359717442
1.7176750115604027e+18,-0.26371131455348834,-1.1999170850232557,9.805175115848838
1.7176750117604027e+18,-0.2283197970569767,-1.2200056675813957,9.821646590523256
1.7176750119604027e+18,-0.3289708866847058,-1.1467532158,9.794808309176469
1.7176750121604027e+18,-0.3078950614104651,-1.1331962887441858,9.804284750034885
1.7176750123604027e+18,-0.2732826038139535,-1.1420441685232559,9.820422361069769
1.7176750125604027e+18,-0.2976108352905882,-1.1527211960705883,9.812712321482351
1.7176750127604027e+18,-0.2679961358372094,-1.148833105744186,9.799387865267443
1.7176750129604027e+18,-0.34106069768139535,-1.1362012264302326,9.830327566255814
1.7176750131604027e+18,-0.3426744624337209,-1.1545091022558138,9.813633430825583
1.7176750133604027e+18,-0.3757576069388236,-1.1913441658705883,9.817892052105885
1.7176750135604027e+18,-0.3697189217395349,-1.1974686245232555,9.810851119255812
1.7176750137604027e+18,-0.3611492767569768,-1.206817319244186,9.809571199627907
1.7176750139604027e+18,-0.35703139666279066,-1.2379240199069765,9.813355212953491
1.7176750141604027e+18,-0.37181648577529414,-1.2337956625294118,9.8211575228
1.7176750143604027e+18,-0.33015387869302326,-1.2172789601860465,9.81658267973256
1.7176750145604027e+18,-0.3168542346988373,-1.201753427895349,9.820422360976744
1.7176750147604027e+18,-0.3529691651093023,-1.1865061398023256,9.811129237279072
1.7176750149604027e+18,-0.3547570701882354,-1.1455145752,9.81350048289412
1.7176750151604027e+18,-0.35664186748372095,-1.115277939023256,9.817862621500002
1.7176750153604027e+18,-0.39787632399418593,-1.0820566623023258,9.792209359104652
1.7176750155604027e+18,-0.3711971700164707,-1.116575504729412,9.82599946191765
1.7176750157604027e+18,-0.37238997637209303,-1.083726067872093,9.819198087197675
1.7176750159604027e+18,-0.3641542178965116,-1.1040372405,9.814913250697673
1.7176750161604027e+18,-0.38335244565465115,-1.1256839397093024,9.817306141534885
1.7176750163604027e+18,-0.3606687496729412,-1.1090873760352944,9.815414821329414
1.7176750165604027e+18,-0.3491295167186047,-1.1287445300813954,9.811073669093025
1.7176750167604027e+18,-0.34929645789651165,-1.1676418005697675,9.81029458377907
1.7176750169604027e+18,-0.2913122450906977,-1.173373446988372,9.824540226895348
1.7176750171604027e+18,-0.30352251424941173,-1.1858828952000002,9.815865180082351
1.7176750173604027e+18,-0.27011072288604654,-1.1956879080930232,9.804952521651165
1.7176750175604027e+18,-0.27873601539069776,-1.218837074151163,9.839397973790698
1.7176750177604027e+18,-0.2685526056709303,-1.2005848538837212,9.810962366430234
1.7176750179604027e+18,-0.2865193999811765,-1.1767620269294117,9.800044474894118
1.7176750181604027e+18,-0.3039997680976744,-1.1565680462558143,9.821646634930232
1.7176750183604027e+18,-0.30283118195232556,-1.1281324001162794,9.814078586011629
1.7176750185604027e+18,-0.34760675079882347,-1.0961942812705883,9.806237590976473
1.7176750187604027e+18,-0.35219010503488374,-1.0807211261104654,9.807790523290699
1.7176750189604027e+18,-0.32353187941046513,-1.0947998400813954,9.821257114395346
1.7176750191604027e+18,-0.33555163859186043,-1.1067082965000001,9.81886426789535
1.7176750193604027e+18,-0.32930869495529413,-1.1262593886117649,9.812318218458822
1.7176750195604027e+18,-0.2940945968360465,-1.1383158162906977,9.820589342755818
1.7176750197604027e+18,-0.299158478027907,-1.17443073077907,9.82709996644186
1.7176750199604027e+18,-0.30082788804069766,-1.1721492064186045,9.80417339188372
1.7176750201604027e+18,-0.22807822507764705,-1.2285595978588235,9.82081970887059
1.7176750203604027e+18,-0.26042813877325577,-1.2285196670232559,9.808124342569766
1.7176750205604027e+18,-0.2641564912511628,-1.2185031939302327,9.824484525744186
1.7176750207604027e+18,-0.2623757868976744,-1.2248469591744189,9.82476287661628
1.7176750209604027e+18,-0.30673171141764705,-1.1968617369882355,9.804548622505884
1.7176750211604027e+18,-0.26844131166162793,-1.1631343837093027,9.812409168034883
1.7176750213604027e+18,-0.2564772007,-1.178047801139535,9.824595872744187
1.7176750215604027e+18,-0.3290965827372093,-1.119173238406977,9.781580758581397
1.7176750217604027e+18,-0.30498635926470585,-1.1206292222941174,9.811192131011765
1.7176750219604027e+18,-0.2871943625639535,-1.1539526235581392,9.827044376081396
1.7176750221604027e+18,-0.3108443586593024,-1.1555107485813954,9.800333777127909
1.7176750223604027e+18,-0.23551004879647067,-1.1751292776117648,9.808151873376472
1.7176750225604027e+18,-0.28524671789302325,-1.1987484943023257,9.81413424289535
1.7176750227604027e+18,-0.2725035451151163,-1.2163886026860466,9.81318827561628
1.7176750229604027e+18,-0.26699448914069773,-1.211102135011628,9.80868078939535
1.7176750231604027e+18,-0.27120533286823534,-1.2519248135294117,9.8128248888
1.7176750233604027e+18,-0.25887002189418606,-1.2449911819651163,9.81413429838372
1.7176750235604027e+18,-0.2564771991465117,-1.2531713012093022,9.813522106
1.7176750237604027e+18,-0.27189143019069767,-1.265524950116279,9.81218657377907
1.7176750239604027e+18,-0.24969807985647058,-1.2363292315764705,9.825717970847057
1.7176750241604027e+18,-0.2709454320465116,-1.1681982791976746,9.795214309255813
1.7176750243604027e+18,-0.3280949356941861,-1.1209539410348839,9.786700259825581
1.7176750245604027e+18,-0.22281074073418597,-1.1564567504883725,9.833388117883725
1.7176750247604027e+18,-0.32182056938705883,-1.1382516509764709,9.809840931611767
1.7176750249604027e+18,-0.2627096683802325,-1.143546628441861,9.81541412927907
1.7176750251604027e+18,-0.2769553082616279,-1.1387609950465116,9.818307721360464
1.7176750253604027e+18,-0.33111035279176476,-1.159308491047059,9.799819183317647
1.7176750255604027e+18,-0.28201919013953486,-1.1749315732558139,9.821479608906976
1.7176750257604027e+18,-0.2883629506034884,-1.2059826158255815,9.811073635895351
1.7176750259604027e+18,-0.27990460032325587,-1.2162216639418606,9.807178364279071
1.7176750261604027e+18,-0.2757657722529412,-1.2192135110000002,9.811924059188236
1.7176750263604027e+18,-0.2754528416813954,-1.2504446048837203,9.831885670430234
1.7176750265604027e+18,-0.25313837652209303,-1.2439338966976743,9.809348516639536
1.7176750267604027e+18,-0.2958196566244186,-1.1922934291976746,9.814802047813954
1.7176750269604027e+18,-0.25606017410352944,-1.194834874647059,9.814007265388236
1.7176750271604027e+18,-0.32737152469883724,-1.1496678022906976,9.81585935105814
1.7176750273604027e+18,-0.3166316463523256,-1.1078768830348837,9.81691663206977
1.7176750275604027e+18,-0.2982124778069768,-1.1001975993023256,9.801001482197675
1.7176750277604027e+18,-0.3469311328529412,-1.1054840578588234,9.808996436164707
1.7176750279604027e+18,-0.3154074106139535,-1.1010322986744188,9.808903394709306
1.7176750281604027e+18,-0.2561989634569768,-1.1674748617325583,9.821702336093024
1.7176750283604027e+18,-0.2797631936905883,-1.1793519048000003,9.814176144235292
1.7176750285604027e+18,-0.24963261377209303,-1.1912917870000002,9.808625154674418
1.7176750287604027e+18,-0.24801884920465112,-1.224401785860465,9.820311113825582
1.7176750289604027e+18,-0.21796944893372094,-1.238424834895349,9.804117746104652
1.7176750291604027e+18,-0.24885355479294122,-1.2304738591529412,9.805505685176469
1.7176750293604027e+18,-0.23800238204186047,-1.257233537953488,9.812130961267442
1.7176750295604027e+18,-0.23004485614767445,-1.25617624994186,9.820422327755814
1.7176750297604027e+18,-0.24518084941976748,-1.2226767207906974,9.808346914604652
1.7176750299604027e+18,-0.2639987154929411,-1.2135270357882353,9.815358509705883
1.7176750301604027e+18,-0.2620419024790698,-1.1785486229651163,9.812019647488375
1.7176750303604027e+18,-0.2915348337848837,-1.1553994515116282,9.814078619255811
1.7176750305604027e+18,-0.2845789535465116,-1.1331406333139535,9.813188275523254
1.7176750307604027e+18,-0.30188976456117644,-1.1147738414352943,9.811361043588233
1.7176750309604027e+18,-0.3183567052744186,-1.1080994689651165,9.801168486093026
1.7176750311604027e+18,-0.30071659490348834,-1.113274650488372,9.812520448558137
1.7176750313604027e+18,-0.31596519334,-1.140334820764706,9.82256505624706
1.7176750315604027e+18,-0.27194707701744186,-1.1398739247325584,9.81652706722093
1.7176750317604027e+18,-0.29509624423372094,-1.1360342877093024,9.80884778222093
1.7176750319604027e+18,-0.2792924852232559,-1.1650820306046512,9.821924863872093
1.7176750321604027e+18,-0.28274718225058826,-1.161504253282353,9.815977825788236
1.7176750323604027e+18,-0.2718914296686047,-1.1752654467209305,9.818808477953489
1.7176750325604027e+18,-0.2757310770220931,-1.189511080232558,9.812019603151162
1.7176750327604027e+18,-0.2612071976383721,-1.199527556139535,9.813744711302327
1.7176750329604027e+18,-0.27199355766823535,-1.2155538979882354,9.82279026922353
1.7176750331604027e+18,-0.27111237235697666,-1.207262493930233,9.822203059500003
1.7176750333604027e+18,-0.2679404897034884,-1.1910135566976745,9.818530426406976
1.7176750335604027e+18,-0.3096201191151163,-1.1564567463604654,9.809793782744187
1.7176750337604027e+18,-0.31140475326,-1.1124091792588235,9.814232399835296
1.7176750339604027e+18,-0.3155187046151163,-1.1270751107674424,9.82776779351163
1.7176750341604027e+18,-0.32937482050930234,-1.0601317258465117,9.788703596755813
1.7176750343604027e+18,-0.3449042698870588,-1.0340934991423527,9.822283621388234
1.7176750345604027e+18,-0.34083811038139533,-1.0615785474825583,9.829214572941861
1.7176750347604027e+18,-0.3165759984837209,-1.082613128511628,9.818419068325582
1.7176750349604027e+18,-0.3110112956779069,-1.0838373675813955,9.819086839930232
1.7176750351604027e+18,-0.31467025350235295,-1.113141099082353,9.833318710294117
1.7176750353604027e+18,-0.2936494208348837,-1.1109374678488373,9.820756268999997
1.7176750355604027e+18,-0.29309294858255813,-1.1218442902906975,9.818196507313955
1.7176750357604027e+18,-0.2934824789697674,-1.1399852218139535,9.820422372104652
1.7176750359604027e+18,-0.26917847166352943,-1.1445574507882355,9.82104488822353
1.7176750361604027e+18,-0.2951518907139535,-1.1666957999534884,9.83767292110465
1.7176750363604027e+18,-0.2829095433593023,-1.137147225627907,9.820644944174418
1.7176750365604027e+18,-0.2887524818581395,-1.1153335876511632,9.824206318930234
1.7176750367604027e+18,-0.32947760084352945,-1.102331158670588,9.820313016105883
1.7176750369604027e+18,-0.3267594083802326,-1.0752120752906973,9.822258638767442
1.7176750371604027e+18,-0.31668729491162795,-1.0657520772372093,9.828825074558141
1.7176750373604027e+18,-0.3611191633882353,-1.0333052732811767,9.800382243847059
1.7176750375604027e+18,-0.3317676397953488,-1.0323081979627906,9.82058927623256
1.7176750377604027e+18,-0.3380001092034884,-1.0565146678616277,9.820255412581396
1.7176750379604027e+18,-0.3260359965104651,-1.0759911308069767,9.821368361581396
1.7176750381604027e+18,-0.3146139509529412,-1.0754752565058827,9.82374738807059
1.7176750383604027e+18,-0.29949235899186044,-1.1109374664302327,9.830160562325581
1.7176750385604027e+18,-0.2909227164348837,-1.1155005331976746,9.821980432023258
1.7176750387604027e+18,-0.2792368389139535,-1.128800171767442,9.828046000313954
1.7176750389604027e+18,-0.28477404608588236,-1.1469221255294118,9.817554283082352
1.7176750391604027e+18,-0.28925330642441854,-1.156623680976744,9.825875792360465
1.7176750393604027e+18,-0.2837998969290698,-1.171537090267442,9.832776014139535
1.7176750395604027e+18,-0.29014365721627905,-1.158237451755814,9.820923173069769
1.7176750397604027e+18,-0.30999721043411765,-1.149737205282353,9.823691076341179
1.7176750399604027e+18,-0.302831181433721,-1.1348656970697677,9.8148577157907
1.7176750401604027e+18,-0.3367758736348838,-1.084839016813954,9.823928067790698
1.7176750403604027e+18,-0.3298717135870588,-1.0912960319058826,9.81986263491765
1.7176750405604027e+18,-0.3451785777837209,-1.0549009067325585,9.803450029988374
1.7176750407604027e+18,-0.32965305274651163,-1.0788291331627908,9.817584392604651
1.7176750409604027e+18,-0.3369984630209302,-1.0957458337790698,9.82904766877907
1.7176750411604027e+18,-0.3107854352317647,-1.0927598714941178,9.821270123600002
1.7176750413604027e+18,-0.30617000370581393,-1.1080994731046512,9.824428990767444
1.7176750415604027e+18,-0.2977673023267442,-1.1266299416860468,9.822091734604651
1.7176750417604027e+18,-0.27606495591511626,-1.1327511045,9.82726693705814
1.7176750419604027e+18,-0.2847740459105883,-1.1468658180705884,9.825661681717648
1.7176750421604027e+18,-0.28218613097441864,-1.1496678064651165,9.812687419139536
1.7176750423604027e+18,-0.2753971925965117,-1.162132745546512,9.826543564034885
1.7176750425604027e+18,-0.28936459834534894,-1.1828890928139537,9.832720379476745
1.7176750427604027e+18,-0.2835354070505882,-1.1438818230823526,9.818004652964705
1.7176750429604027e+18,-0.3176889409116279,-1.1353108744534888,9.836949525872093
1.7176750431604027e+18,-0.3228084684104652,-1.0855624300581395,9.818864256813956
1.7176750433604027e+18,-0.3420328841505882,-1.0339808911811763,9.78275976742353
1.7176750435604027e+18,-0.3155743535151163,-1.0413786727255814,9.836170418290697
1.7176750437604027e+18,-0.24167508805232554,-1.046108672089535,9.845296593593025
1.7176750439604027e+18,-0.2123490968767442,-1.0261870379813958,9.820088430860466
1.7176750441604027e+18,-0.24316708217294117,-1.0439462934752943,9.811192153458826
1.7176750443604027e+18,-0.24851967220813947,-1.0605769003953487,9.834055889453492
1.7176750445604027e+18,-0.23755720517209306,-1.078996077372093,9.825263655476746
1.7176750447604027e+18,-0.24890920155697674,-1.1044267706279072,9.822425631581396
1.7176750449604027e+18,-0.24631997784823534,-1.1290181874705885,9.829546502047059
1.7176750451604027e+18,-0.2613741388093024,-1.141432044139535,9.818586016790698
1.7176750453604027e+18,-0.25631025865813956,-1.1429345192558142,9.817862599325583
1.7176750455604027e+18,-0.2309908551581395,-1.1668070915697673,9.829047613325583
1.7176750457604027e+18,-0.2528509783388236,-1.1658394898235296,9.807588835270588
1.7176750459604027e+18,-0.2503003776,-1.1837237948837207,9.830216208162792
1.7176750461604027e+18,-0.22631650435813955,-1.1644142755348836,9.82954845867442
1.7176750463604027e+18,-0.26889696419176473,-1.139096171811765,9.820481962282354
1.7176750465604027e+18,-0.2613184914697675,-1.132918055627907,9.810795462430232
1.7176750467604027e+18,-0.2748407208616279,-1.1120504209651165,9.831217909953489
1.7176750469604027e+18,-0.29420589014418613,-1.0875657145232558,9.816471365930234
1.7176750471604027e+18,-0.3008763343070588,-1.0684938318329413,9.81254339778824
1.7176750473604027e+18,-0.30427800344418604,-1.0710941871976745,9.814468128651162
1.7176750475604027e+18,-0.3193027046255814,-1.0964692497093025,9.81725047351163
1.7176750477604027e+18,-0.30021577137906974,-1.0840599494651164,9.824818489116279
1.7176750479604027e+18,-0.2735137040105883,-1.1081302375882351,9.818905482541176
1.7176750481604027e+18,-0.2857475408965117,-1.1227346451395352,9.818307765651163
1.7176750483604027e+18,-0.2477406135093024,-1.1292453395581397,9.815914930290699
1.7176750485604027e+18,-0.2647129624627907,-1.1567349835813954,9.829993647186047
1.7176750487604027e+18,-0.2346655246070588,-1.1531716108,9.818792803164708
1.7176750489604027e+18,-0.24139685131162794,-1.1567349781046512,9.82097884117442
1.7176750491604027e+18,-0.2452921435883721,-1.167140980139535,9.813855958523257
1.7176750493604027e+18,-0.23303277370235298,-1.1803090320470588,9.837935447658824
1.7176750495604027e+18,-0.26398954904418603,-1.157013209767442,9.818085171406977
1.7176750497604027e+18,-0.26710578330581397,-1.1336971091860464,9.819031127651165
1.7176750499604027e+18,-0.25642155128255817,-1.132528519976744,9.820088508476745
1.7176750501604027e+18,-0.33634641048117647,-1.077952523764706,9.822902903776471
1.7176750503604027e+18,-0.307561179927907,-1.0526193767511631,9.811741440802328
1.7176750505604027e+18,-0.3314337612546512,-1.0353688014313955,9.815024608802325
1.7176750507604027e+18,-0.30589176905232557,-1.0578501970976746,9.818808577744187
1.7176750509604027e+18,-0.2973856291282353,-1.0621880489529412,9.821551681941177
1.7176750511604027e+18,-0.29737777280581396,-1.086397136290698,9.824985493011628
1.7176750513604027e+18,-0.2770666038267442,-1.0941320657325582,9.821423951976746
1.7176750515604027e+18,-0.2819078966627907,-1.1159456997093025,9.826599121069767
1.7176750517604027e+18,-0.26596927484705885,-1.1207981222705885,9.818286155188234
1.7176750519604027e+18,-0.25091249496279067,-1.145939450034884,9.823316041825583
1.7176750521604027e+18,-0.26076202145697674,-1.1539526318139537,9.812631795581396
1.7176750523604027e+18,-0.25420221738705884,-1.1464154046823531,9.81175520282353
1.7176750525604027e+18,-0.2635443726883721,-1.1771574450232558,9.841011757034885
1.7176750527604027e+18,-0.25030037881511624,-1.1341979310116281,9.818474725244188
1.7176750529604027e+18,-0.2710010757616279,-1.1114383006744186,9.82676614717442
1.7176750531604027e+18,-0.2830286920058824,-1.1014303389764708,9.816259305611762
1.7176750533604027e+18,-0.2585361398906977,-1.0948554844883724,9.832219511883721
1.7176750535604027e+18,-0.3566418667860464,-1.0476111437034885,9.807289611418605
1.7176750537604027e+18,-0.3291522302639535,-1.0377616092465116,9.81012764633721
1.7176750539604027e+18,-0.3214827590164705,-1.06759300164,9.827069237635296
1.7176750541604027e+18,-0.30116177091046514,-1.0701481901069767,9.823427344465118
1.7176750543604027e+18,-0.2891420115569768,-1.077048419523256,9.828602535802327
1.7176750545604027e+18,-0.2902549520848838,-1.096524891406977,9.819365068872093
1.7176750547604027e+18,-0.2651247494352941,-1.1193342867529412,9.826731401258822
1.7176750549604027e+18,-0.274395546594186,-1.1328067557906978,9.820533597162791
1.7176750551604027e+18,-0.2615967257744186,-1.1363681693139536,9.817083536186049
1.7176750553604027e+18,-0.25538455387294123,-1.1517640633294117,9.827463307094119
1.7176750555604027e+18,-0.2485753214569768,-1.1506138001744188,9.819086806697673
1.7176750557604027e+18,-0.2755084852127907,-1.1630230907558141,9.84262550706977
1.7176750559604027e+18,-0.15736982452093023,-1.1068195839418606,9.822703904895349
1.7176750561604027e+18,-0.22926055841529408,-1.1184897646352943,9.822171031694118
1.7176750563604027e+18,-0.2866935405976745,-1.1068752338604648,9.818419112697676
1.7176750565604027e+18,-0.2654363734744186,-1.0809993728837213,9.828268583441861
1.7176750567604027e+18,-0.28418942505581396,-1.0517290178662788,9.811964001813957
1.7176750569604027e+18,-0.30042591971882354,-1.040511887949412,9.812149294611764
1.7176750571604027e+18,-0.3225858807604651,-1.0726523121860467,9.81986590311628
1.7176750573604027e+18,-0.2962091842406977,-1.0773266664418606,9.813522128162791
1.7176750575604027e+18,-0.2975447132837209,-1.0948554803604653,9.831162275244187
1.7176750577604027e+18,-0.25341399364352934,-1.1052588518705881,9.825999484317649
1.7176750579604027e+18,-0.25820225580930234,-1.1206757024767442,9.826654877720932
1.7176750581604027e+18,-0.2462381434616279,-1.1329180528953489,9.819531984058141
1.7176750583604027e+18,-0.22554464655999992,-1.1491178877764705,9.8270692264
1.7176750585604027e+18,-0.23995002896860468,-1.1583487516162794,9.815581044372093
1.7176750587604027e+18,-0.23032309045465113,-1.159684271383721,9.815581033372094
1.7176750589604027e+18,-0.2461824971581395,-1.1740412061511631,9.836893780325584
1.7176750591604027e+18,-0.23033029244235295,-1.1447263507294116,9.820087825588235
1.7176750593604027e+18,-0.2943728332232558,-1.1033694812674417,9.830661440965118
1.7176750595604027e+18,-0.2966543604151162,-1.1107148784581395,9.81819646306977
1.7176750597604027e+18,-0.3987666749674417,-1.0669206636779072,9.824818433639535
1.7176750599604027e+18,-0.3379791610352941,-1.0754752551611764,9.785462289694117
1.7176750601604027e+18,-0.32720458542093017,-1.093909481162791,9.810962388662793
1.7176750603604027e+18,-0.2881403626081395,-1.1424893266395348,9.829993636081396
1.7176750605604027e+18,-0.30694906205581396,-1.1314155779186044,9.821757915406979
1.7176750607604027e+18,-0.28961599329058824,-1.138927281564706,9.821551670670589
1.7176750609604027e+18,-0.29609789092325584,-1.1648594515348836,9.816638336581395
1.7176750611604027e+18,-0.259927314722093,-1.1727613252790698,9.82248127733721
1.7176750613604027e+18,-0.282409374502353,-1.1759737983176473,9.81012247867059
1.7176750615604027e+18,-0.27445119290000003,-1.1689216826976743,9.802504051523256
1.7176750617604027e+18,-0.2425097942691977,-1.1158900634441862,9.822481332744186
1.7176750619604027e+18,-0.40716937876976733,-1.0936868884302327,9.835558336802325
1.7176750621604027e+18,-0.2247001205034941,-1.1065537950141175,9.858710760588236
1.7176750623604027e+18,-0.26126284529058136,-0.9935222219802324,9.836226097476745
1.7176750625604027e+18,-0.4387212500455815,-0.8348168682186045,9.846632092523256
1.7176750627604027e+18,-0.4184657274616279,-1.0156697533476746,9.834779317953487
1.7176750629604027e+18,-0.15522381201471766,-0.7727972633470588,9.87222315875294
1.7176750631604027e+18,-0.17834875624418609,-0.9854534032848837,9.841234362325581
1.7176750633604027e+18,-0.29019930508511627,-0.6513485804593023,9.8553687585
1.7176750635604027e+18,-0.39147691567441867,-0.5765589641976745,9.837728566883722
1.7176750637604027e+18,-0.5353166545117648,-0.600119915072941,9.841257252435296
1.7176750639604027e+18,-0.5068332241641862,-1.0616341891697674,10.600760715116278
1.7176750641604027e+18,-0.7659814802148489,-1.0377059746872093,10.548619491941862
1.7176750643604027e+18,-0.8616413618554117,1.6371974031768235,10.807788669435295
1.7176750645604027e+18,-0.8301425142633719,2.3731792374767444,9.202295070534884
1.7176750647604027e+18,0.4059451432313953,2.7692748668139533,6.278377061686046
1.7176750649604027e+18,-0.058485037554593035,2.3464686620697672,8.349003409267443
1.7176750651604027e+18,-0.9450241882434703,0.9817329029529411,10.100019926364705
1.7176750653604027e+18,-1.9964487843546508,-0.2972664769562208,10.702873085372094
1.7176750655604027e+18,-2.556480576779069,-1.1891215598151164,12.502609618372093
1.7176750657604027e+18,-1.9953358498755815,0.061489980121011624,10.349792636151165
1.7176750659604027e+18,-0.9051062766787296,1.5100118437470589,9.156966310341176
1.7176750661604027e+18,0.3669365697213954,2.7593696976860462,5.783285418174419
1.7176750663604027e+18,-0.10133325531300003,1.754217230254651,8.546494739023254
1.7176750665604027e+18,-1.3561955767222351,0.29507726040317644,10.719676601647059
1.7176750667604027e+18,-1.3994673656976742,-0.835540282984186,11.654604379383724
1.7176750669604027e+18,-2.209966474454651,-1.2139957859267445,12.202505178372093
1.7176750671604027e+18,-1.249220358794186,-0.008124467603546513,10.028597953802326
1.7176750673604027e+18,-0.13771398045103528,1.320049879431765,9.095203315411766
1.7176750675604027e+18,0.5520742622851162,2.625705488895349,5.848392425604651
1.7176750677604027e+18,-0.35914598601226744,1.6492669152418604,8.799855670337209
1.7176750679604027e+18,-1.3964624200197673,0.6756663389848837,10.441443332139535
1.7176750681604027e+18,-2.247789445351765,-0.40154378937947055,10.715341287364707
1.7176750683604027e+18,-2.474790729744186,-1.2818851644790699,12.214691860930234
1.7176750685604027e+18,-1.1545091014883722,-0.45324512415000007,10.829136216034884
1.7176750687604027e+18,-0.7609732449267441,0.5603100251935466,9.476301060197674
1.7176750689604027e+18,0.3830768275100825,2.430601090576471,6.761722693729413
1.7176750691604027e+18,0.23800238367579066,2.114142286151163,7.1277178333255815
1.7176750693604027e+18,-1.0779387840517443,0.8271375739815113,10.399596802011628
1.7176750695604027e+18,-1.711909770952941,-0.09154657829699998,10.499649485788233
1.7176750697604027e+18,-2.1672851963209303,-1.1612980393255812,12.582963942906975
1.7176750699604027e+18,-1.707807594922093,-0.5377173322585466,11.160848274139536
1.7176750701604027e+18,-0.9100516613279073,0.34645845937811626,9.535342593569766
1.7176750703604027e+18,-0.5056456522898823,1.9443232276517644,8.440921132729411
1.7176750705604027e+18,0.498096638297093,2.387536176383721,5.813891255569767
1.7176750707604027e+18,-1.0826131258552325,1.6960104342906979,9.810016332558138
1.7176750709604027e+18,-1.4806007472976745,0.7615853637489534,10.69502689672093
1.7176750711604027e+18,-1.391158929917647,0.12549651051654115,10.42200940082353
1.7176750713604027e+18,-1.3089296339267444,-0.335162113271628,10.32820162693023
1.7176750715604027e+18,-0.877998968010465,-0.693807275140814,10.16738167451163
1.7176750717604027e+18,0.010517291118255818,-0.8571313321348836,9.873676555139536
1.7176750719604027e+18,-0.031022242294529406,-0.6442041572282352,9.863890524482352
1.7176750721604027e+18,-0.1313270100152093,-0.6857940963476743,9.889090815104652
1.7176750723604027e+18,0.0791857353198372,-0.8576878038825583,9.799665994383721
1.7176750725604027e+18,-0.09852799182715294,-1.033080059677647,9.911409187317648
1.7176750727604027e+18,-0.07963091133936046,-1.275764002372093,9.817139193081395
1.7176750729604027e+18,0.08608596792576746,-1.264022472337209,9.787924522581397
1.7176750731604027e+18,0.10411560869418607,-1.2716461281046514,9.848913636313956
1.7176750733604027e+18,-0.185457830674553,-1.063933397695294,9.809615729776471
1.7176750735604027e+18,-0.15620123571901162,-1.0097155099790698,9.821145789534883
1.7176750737604027e+18,-0.3336039923198838,-1.1243484089523255,9.857984121546513
1.7176750739604027e+18,0.027934813129976744,-1.1084333560941861,9.779744369988371
1.7176750741604027e+18,0.016890512568988235,-1.224393276670588,9.86405942577647
1.7176750743604027e+18,-0.0481903354302907,-0.9180091879674421,9.826877449860465
1.7176750745604027e+18,-0.1937629867066279,-0.9030957886953487,9.794490858534884
1.7176750747604027e+18,0.08897961459967442,-1.1014774795546514,9.812130961406977
1.7176750749604027e+18,-0.2625348693314118,-1.4051780602470587,9.808377041529413
1.7176750751604027e+18,-0.07423314884284885,-1.2593481277558138,9.79315534855814
1.7176750753604027e+18,0.15547782470593022,-1.4494940513837207,9.78252672588372
1.7176750755604027e+18,0.11035134906376469,-1.4073738309058823,9.794301627635294
1.7176750757604027e+18,0.047299982335023256,-1.4805451008255812,9.784585664372093
1.7176750759604027e+18,-0.09532337669301162,-1.4778740364418608,9.79710626604651
1.7176750761604027e+18,-0.142456417905,-1.4443188725813954,9.774624868872094
1.7176750763604027e+18,-0.10607241992823527,-1.4507261445294117,9.793400798117649
1.7176750765604027e+18,-0.14957923827127906,-1.3642984380116283,9.780857363360465
1.7176750767604027e+18,-0.14434841673860463,-1.3090409263255811,9.776182973093023
1.7176750769604027e+18,-0.14306853480151166,-1.3058133958023257,9.782359832895349
1.7176750771604027e+18,-0.13782658401776474,-1.3097466637529411,9.770823860188235
1.7176750773604027e+18,-0.14401453426127905,-1.2781568253372093,9.814189899802328
1.7176750775604027e+18,-0.18686275444302325,-1.2832763472906976,9.78964956417442
1.7176750777604027e+18,-0.21757991915348834,-1.3009721110581394,9.787367942720932
1.7176750779604027e+18,-0.1861334504388235,-1.3277069105999997,9.810460225211765
1.7176750781604027e+18,-0.18513769596511628,-1.3412605621279066,9.794546493209305
1.7176750783604027e+18,-0.22414626891511633,-1.3467139699186046,9.786533311313955
1.7176750785604027e+18,-0.19052498410588237,-1.3687508542352944,9.813556839352945
1.7176750787604027e+18,-0.20934415730232558,-1.3488842083372092,9.795269866325583
1.7176750789604027e+18,-0.277734367477907,-1.2996922191395348,9.800834522616281
1.7176750791604027e+18,-0.22720685731162793,-1.299747871837209,9.795603774279071
1.7176750793604027e+18,-0.3092652904635294,-1.246238335494118,9.805674608929413
1.7176750795604027e+18,-0.3027755351244186,-1.2494985863720929,9.791485952767442
1.7176750797604027e+18,-0.36064845393023254,-1.242153192662791,9.764107548883722
1.7176750799604027e+18,-0.33838963733953487,-1.2939605837906976,9.818697330546513
1.7176750801604027e+18,-0.3388799895258824,-1.2720808253411764,9.797792378576471
1.7176750803604027e+18,-0.3391130511139535,-1.2507784796744184,9.800890235
1.7176750805604027e+18,-0.2695542532244186,-1.3287399814186047,9.798219192860467
1.7176750807604027e+18,-0.32553517367674417,-1.308540103093023,9.792598890639537
1.7176750809604027e+18,-0.25814333610352935,-1.3065937673529409,9.790585753470587
1.7176750811604027e+18,-0.26304355107790695,-1.342707378976744,9.796104586372094
1.7176750813604027e+18,-0.2713906054604652,-1.3588450232674416,9.788536570709303
1.7176750815604027e+18,-0.24665778839647062,-1.3487637435882356,9.778649767658825
1.7176750817604027e+18,-0.22030662311744184,-1.37793196227907,9.793322274813955
1.7176750819604027e+18,-0.23722332386860467,-1.3986326567674419,9.78096864383721
1.7176750821604027e+18,-0.23483050042674417,-1.3893952523139537,9.808959051593025
1.7176750823604027e+18,-0.19232663941905884,-1.3979151361647055,9.8006074568
1.7176750825604027e+18,-0.2183033318888372,-1.3734245494883717,9.777295888883721
1.7176750827604027e+18,-0.21073533317558135,-1.305423871069767,9.778854026302328
1.7176750829604027e+18,-0.22080744724767437,-1.3668025593720927,9.807901770534889
1.7176750831604027e+18,-0.2089356430329412,-1.3590669591058824,9.78388580990588
1.7176750833604027e+18,-0.22843109226860467,-1.2650241172906973,9.78692284294186
1.7176750835604027e+18,-0.2138515688290697,-1.308985284732558,9.80033379933721
1.7176750837604027e+18,-0.24147803257176473,-1.3209507100823528,9.776228725176471
1.7176750839604027e+18,-0.23004485580348835,-1.2863925847906974,9.791652823593024
1.7176750841604027e+18,-0.20389074710697672,-1.3448219770930232,9.797940919523256
1.7176750843604027e+18,-0.22308897590465115,-1.3501084447674419,9.785364749709302
1.7176750845604027e+18,-0.2030802649611764,-1.3349135216823524,9.78720761462353
1.7176750847604027e+18,-0.2117926275627907,-1.386223368918604,9.802448383604652
1.7176750849604027e+18,-0.2068956884174418,-1.3950712501279072,9.783138873930236
1.7176750851604027e+18,-0.2092328632965117,-1.3709204308720926,9.781747662755816
1.7176750853604027e+18,-0.22047749319294116,-1.4179022551058826,9.826618834058825
1.7176750855604027e+18,-0.21095792152093018,-1.3834966616046511,9.78313882960465
1.7176750857604027e+18,-0.22336721108023255,-1.359957964023256,9.781747651593024
1.7176750859604027e+18,-0.260149903077907,-1.3630185473837206,9.799499057023256
1.7176750861604027e+18,-0.21906995088588233,-1.3148138229058823,9.801958667482355
1.7176750863604027e+18,-0.2923138928255814,-1.2809391784418607,9.778241900453487
1.7176750865604027e+18,-0.2554199037081395,-1.3064811604418605,9.771285999662789
1.7176750867604027e+18,-0.2464888821623529,-1.2548524996588235,9.79829906014118
1.7176750869604027e+18,-0.25736755063488376,-1.334026443488372,9.798107934534883
1.7176750871604027e+18,-0.2507455536081395,-1.3330248041162787,9.794602127906979
1.7176750873604027e+18,-0.23060132563023258,-1.3493850273488368,9.798553089755815
1.7176750875604027e+18,-0.25059890764705883,-1.3702146923882352,9.78822104504706
1.7176750877604027e+18,-0.2366668533406977,-1.3788779585930238,9.796271523709303
1.7176750879604027e+18,-0.2016092183651162,-1.3753721853255811,9.818864223534886
1.7176750881604027e+18,-0.1908136940662791,-1.3435420865813947,9.797328815895348
1.7176750883604027e+18,-0.22194133786705889,-1.3074382853176472,9.7882773792
1.7176750885604027e+18,-0.18892169336686046,-1.306035985848837,9.811518890918606
1.7176750887604027e+18,-0.2457929676290698,-1.2665822353953489,9.787145459348837
1.7176750889604027e+18,-0.2302674448441861,-1.2082641402209302,9.806343621918602
1.7176750891604027e+18,-0.19638036025058825,-1.167697450729412,9.78895299567059
1.7176750893604027e+18,-0.23633296977906984,-1.192627320465116,9.810461532232557
1.7176750895604027e+18,-0.1915927515488372,-1.2068173151046513,9.803950864186048
1.7176750897604027e+18,-0.19075019053058823,-1.1986070843411762,9.809784664811767
1.7176750899604027e+18,-0.24913178990465126,-1.2105456701860462,9.80328304817442
1.7176750901604027e+18,-0.2038351003686046,-1.2567327133837205,9.789593929453487
1.7176750903604027e+18,-0.1752881704040698,-1.3340820934302329,9.806621862011628
1.7176750905604027e+18,-0.18534522766705885,-1.3927353775294122,9.797736066858823
1.7176750907604027e+18,-0.2402282639651163,-1.3932905460697678,9.76705684210465
1.7176750909604027e+18,-0.18374652043372092,-1.4913406205697677,9.802448372476743
1.7176750911604027e+18,-0.1255953649947325,-1.4772062759069766,9.722038368674417
1.7176750913604027e+18,-0.3405690392164706,-1.7167517254705886,9.784955563247058
1.7176750915604027e+18,-0.2974334191081395,-1.6316824582441862,9.77184259056977
1.7176750917604027e+18,-0.27851342513720934,-1.6575026774418602,9.784975184906978
1.7176750919604027e+18,-0.2771778976523256,-1.6377479862906972,9.736729200430233
1.7176750921604027e+18,-0.32182056833647055,-1.5835418841411761,9.759000452764706
1.7176750923604027e+18,-0.12587360079656978,-1.5671318921627906,9.746189239406977
1.7176750925604027e+18,-0.20489239514569768,-1.4479915762558138,9.767502030558141
1.7176750927604027e+18,-0.2198018721777647,-1.4410985526352942,9.764461786611763
1.7176750929604027e+18,-0.1068979605876744,-1.4507739322093023,9.781469400651165
1.7176750931604027e+18,-0.25508602379186046,-1.296409053860465,9.775181360034885
1.7176750933604027e+18,-0.20233263118488373,-1.4168848797558138,9.797050586976745
1.7176750935604027e+18,-0.11845879545729411,-1.4167199107058823,9.812881189188236
1.7176750937604027e+18,-0.32737152555465127,-1.3138822220697672,9.76622214427907
1.7176750939604027e+18,-0.25119072979418605,-1.3829958384534884,9.805453278267441
1.7176750941604027e+18,-0.2445687336255813,-1.3658009060813951,9.78480829189535
1.7176750943604027e+18,-0.27835565121411765,-1.3353076388588236,9.804942591082353
1.7176750945604027e+18,-0.23705638251511627,-1.388282311581395,9.802837870825583
1.7176750947604027e+18,-0.2412855583523256,-1.3619056081860461,9.799721673430232
1.7176750949604027e+18,-0.2594382754129411,-1.3145886127411763,9.7886151706
1.7176750951604027e+18,-0.21424109670465113,-1.3319675174069767,9.81163011595349
1.7176750953604027e+18,-0.2409516758302326,-1.228241427081395,9.777240331709304
1.7176750955604027e+18,-0.24262108722906975,-1.2229549676744187,9.765498760127906
1.7176750957604027e+18,-0.2592130699635294,-1.279850452117647,9.817328991588237
1.7176750959604027e+18,-0.22965532575813954,-1.2430435419186048,9.805119458988374
1.7176750961604027e+18,-0.2730600170232559,-1.2661927065348837,9.794212585197673
1.7176750963604027e+18,-0.23199250254186043,-1.311211157790698,9.814802014476747
1.7176750965604027e+18,-0.21293306350588234,-1.3177978039647056,9.796610069258824
1.7176750967604027e+18,-0.2380580307755814,-1.3341933877441858,9.801613674569765
1.7176750969604027e+18,-0.2533053170081396,-1.3438203279534886,9.794546471093023
1.7176750971604027e+18,-0.21830333024069762,-1.3539480789767444,9.810851041697676
1.7176750973604027e+18,-0.2666448971752941,-1.355519949764706,9.802465382717646
1.7176750975604027e+18,-0.24189767431395345,-1.320559864860465,9.789259999244187
1.7176750977604027e+18,-0.2637113145604651,-1.328294804,9.806788888069768
1.7176750979604027e+18,-0.25617277744705885,-1.320612889188235,9.79683521497647
1.7176750981604027e+18,-0.2757867224732558,-1.2852240024651165,9.791986753732557
1.7176750983604027e+18,-0.2879734219476744,-1.2717574156162785,9.777852379965116
1.7176750985604027e+18,-0.2655476660895349,-1.2683629490348836,9.791931074662791
1.7176750987604027e+18,-0.27751112422470586,-1.2865503619764707,9.797905001917648
1.7176750989604027e+18,-0.2425654390174419,-1.3059246971162792,9.798497399534885
1.7176750991604027e+18,-0.24484696862558145,-1.3131588129999996,9.804173391872094
1.7176750993604027e+18,-0.243511439572093,-1.342540438755814,9.798942632418607
1.7176750995604027e+18,-0.24052090083529412,-1.3305782894117648,9.79109241264706
1.7176750997604027e+18,-0.23822497021511627,-1.3710317265232557,9.799220861325582
1.7176750999604027e+18,-0.2410629694883722,-1.3775424292906975,9.808235600883721
1.7176751001604027e+18,-0.23566520664534885,-1.3353063298488368,9.792209370151163
1.7176751003604027e+18,-0.24598216852235288,-1.363796302964706,9.806293902682356
1.7176751005604027e+18,-0.26154107842906976,-1.3178331534999999,9.78881486623256
1.7176751007604027e+18,-0.26588154843720935,-1.2872829395930232,9.788035836348838
1.7176751009604027e+18,-0.2682213436141177,-1.2862688485647058,9.792105921529412
1.7176751011604027e+18,-0.2553086119686047,-1.2490534159069766,9.792877119651164
1.7176751013604027e+18,-0.2538061413965116,-1.2766543516744184,9.784808336232558
1.7176751015604027e+18,-0.2727817825395349,-1.2930145846046515,9.805675950162792
1.7176751017604027e+18,-0.23657978212117659,-1.2894780509529413,9.805224194235295
1.7176751019604027e+18,-0.22909885557906975,-1.3294077419186043,9.808959051651165
1.7176751021604027e+18,-0.25592072792790704,-1.3192799743488368,9.792598879546514
1.7176751023604027e+18,-0.24178638101162797,-1.3517778501744189,9.793878754918605
1.7176751025604027e+18,-0.2717120487870589,-1.360418200435294,9.805787198717647
1.7176751027604027e+18,-0.24902049624767444,-1.3725342016744189,9.808068796581395
1.7176751029604027e+18,-0.27005507571860465,-1.3360297403372094,9.807011449046511
1.7176751031604027e+18,-0.28897506934534883,-1.3173879870581393,9.788091459918604
1.7176751033604027e+18,-0.3222709855576471,-1.274163995070588,9.79700416116471
1.7176751035604027e+18,-0.28758389346511626,-1.3082618700348838,9.805119425732562
1.7176751037604027e+18,-0.3152404709953489,-1.2408733021976743,9.76455271523256
1.7176751039604027e+18,-0.3190617868176471,-1.2821588334235292,9.793794968505884
1.7176751041604027e+18,-0.29509624422558134,-1.2974106947790696,9.801057216627909
1.7176751043604027e+18,-0.2756754276034884,-1.298746229686046,9.79705060911628
1.7176751045604027e+18,-0.2631548440325581,-1.3268479802674418,9.80378386027907
1.7176751047604027e+18,-0.27751112387411764,-1.344090704458824,9.796553690282353
1.7176751049604027e+18,-0.2457929690197674,-1.378711022674419,9.795269910627907
1.7176751051604027e+18,-0.28085060330813955,-1.3926784202325582,9.789093006383721
1.7176751053604027e+18,-0.26749531283720934,-1.3964624170116282,9.804785495558141
1.7176751055604027e+18,-0.2468266934082353,-1.4102452096235292,9.808095561741178
1.7176751057604027e+18,-0.27695531016860464,-1.3600692611162792,9.791875417825583
1.7176751059604027e+18,-0.24863096741860466,-1.328795628546512,9.774290960895348
1.7176751061604027e+18,-0.26585666958000004,-1.3351387389058824,9.822508834376471
1.7176751063604027e+18,-0.23065697297441864,-1.280605285755814,9.761102676360464
1.7176751065604027e+18,-0.2509124951255814,-1.279659298976744,9.79732879367442
1.7176751067604027e+18,-0.22052921259302324,-1.30470044672093,9.790873727093022
1.7176751069604027e+18,-0.24615107231294123,-1.311210517364706,9.797398264282355
1.7176751071604027e+18,-0.22197603434186047,-1.3412605621511628,9.797718436255817
1.7176751073604027e+18,-0.22403497508837206,-1.325790693639535,9.799777308127908
1.7176751075604027e+18,-0.2613741389895348,-1.3852773711162794,9.805954123604653
1.7176751077604027e+18,-0.21484732329647052,-1.3726919721882351,9.776791796976473
1.7176751079604027e+18,-0.21323944974418602,-1.3642984296511633,9.78447440606977
1.7176751081604027e+18,-0.22703991483139538,-1.394737367034884,9.801279788813952
1.7176751083604027e+18,-0.2067843928593023,-1.4057554741976743,9.805508990593024
1.7176751085604027e+18,-0.22847233607411765,-1.3583913411058823,9.791599195164705
1.7176751087604027e+18,-0.2360547361616279,-1.3629629071279072,9.7907625242093
1.7176751089604027e+18,-0.2213082698209303,-1.3477156120930234,9.797217590790698
1.7176751091604027e+18,-0.26326679342000003,-1.339642869752941,9.796835181247062
1.7176751093604027e+18,-0.25380613966976745,-1.3054238683372092,9.756483987337209
1.7176751095604027e+18,-0.24996649612209298,-1.334582917953488,9.792543167232559
1.7176751097604027e+18,-0.26938731275000005,-1.3487729084186044,9.790818181139537
1.7176751099604027e+18,-0.24705190114588238,-1.3415571241647057,9.792218455152943
1.7176751101604027e+18,-0.24523649780697673,-1.3773198391279065,9.798720027104652
1.7176751103604027e+18,-0.2322707387569768,-1.399745597453489,9.790818158895348
1.7176751105604027e+18,-0.2313247374988372,-1.3998568945930234,9.787813164406979
1.7176751107604027e+18,-0.27143054096117647,-1.4173955371058826,9.789853791529412
1.7176751109604027e+18,-0.22870932605697675,-1.4280142923139536,9.804396041511628
1.7176751111604027e+18,-0.24707284898720933,-1.398076186406977,9.794713408430232
1.7176751113604027e+18,-0.2589256690627907,-1.4097620665697677,9.790651210430232
1.7176751115604027e+18,-0.24817793386235293,-1.3570400954117647,9.787263993658824
1.7176751117604027e+18,-0.2841337777139535,-1.354115021860465,9.784808247593025
1.7176751119604027e+18,-0.2835773071860465,-1.314716926883721,9.770395655941861
1.7176751121604027e+18,-0.268671757157647,-1.3544502258470588,9.79047317502353
1.7176751123604027e+18,-0.27962636618139536,-1.3552279722441862,9.785698591267442
1.7176751125604027e+18,-0.2553086121325582,-1.3580103254418607,9.784752635011627
1.7176751127604027e+18,-0.2555868478348837,-1.390786426046512,9.794546570860465
1.7176751129604027e+18,-0.24631997750588233,-1.38862535542353,9.79351339894118
1.7176751131604027e+18,-0.2567554350093023,-1.394904301686047,9.796438505465117
1.7176751133604027e+18,-0.24206461601162793,-1.4065901845930235,9.78035647367442
1.7176751135604027e+18,-0.2370563837325581,-1.424786771546512,9.796215888999999
1.7176751137604027e+18,-0.26428022437176474,-1.439972521411765,9.799706638564706
1.7176751139604027e+18,-0.24184202801162794,-1.3972414843139538,9.788759253686043
1.7176751141604027e+18,-0.266660606266279,-1.379935252151163,9.786032465988372
1.7176751143604027e+18,-0.2430106153686047,-1.3642427811162794,9.787423688279071
1.7176751145604027e+18,-0.2776800311635294,-1.3678500274588237,9.791036168235296
1.7176751147604027e+18,-0.26499119695,-1.3284617399302325,9.752588693430233
1.7176751149604027e+18,-0.270333312972093,-1.3744261916511626,9.79387871051163
1.7176751151604027e+18,-0.2430544795364706,-1.3741558174,9.791711773541179
1.7176751153604027e+18,-0.2904218913511628,-1.3546158505930235,9.78514217777907
1.7176751155604027e+18,-0.2341070899383721,-1.403362644290698,9.785865561825583
1.7176751157604027e+18,-0.2531383751395349,-1.4212810065116277,9.787423710488373
1.7176751159604027e+18,-0.23855034200235295,-1.4566941261764708,9.778424577117647
1.7176751161604027e+18,-0.24139685114534892,-1.4662994674302328,9.77479180617442
1.7176751163604027e+18,-0.24824143841395344,-1.4965714493953486,9.797607022627908
1.7176751165604027e+18,-0.22642779800348842,-1.481101560034884,9.789426947732558
1.7176751167604027e+18,-0.1990828433435294,-1.452527802211765,9.781127054517649
1.7176751169604027e+18,-0.22726250457325578,-1.4244528871279067,9.780022621034883
1.7176751171604027e+18,-0.2495213194313953,-1.44059053277907,9.789816501476746
1.7176751173604027e+18,-0.22340518183411773,-1.4263475039882356,9.769641550858825
1.7176751175604027e+18,-0.2541956710918604,-1.3891170067093026,9.759099394790697
1.7176751177604027e+18,-0.22692862238953487,-1.4187212434767444,9.776739442046512
1.7176751179604027e+18,-0.23188120784883728,-1.4128226596976747,9.779354871697675
1.7176751181604027e+18,-0.2140590992011765,-1.4452085748352945,9.787939554058823
1.7176751183604027e+18,-0.2041133356337209,-1.4529441748372094,9.777462903825581
1.7176751185604027e+18,-0.21396286196395342,-1.4663551020465118,9.784196166081397
1.7176751187604027e+18,-0.2072852174209302,-1.4902833270697675,9.775793463709304
1.7176751189604027e+18,-0.22785301611529413,-1.4863088257411765,9.771105250141176
1.7176751191604027e+18,-0.23032309166860468,-1.4944012207325583,9.785253413813956
1.7176751193604027e+18,-0.22153085920813953,-1.4856089769651162,9.774958743651164
1.7176751195604027e+18,-0.21474191996860464,-1.493956044755814,9.789426980988374
1.7176751197604027e+18,-0.2571299065541176,-1.467053642035294,9.782985002823532
1.7176751199604027e+18,-0.25174719995697675,-1.4605121724302328,9.78781317544186
1.7176751201604027e+18,-0.28747259859999996,-1.433078181011628,9.775181315627908
1.7176751203604027e+18,-0.27649769555058823,-1.4189156770941178,9.799087255105885
1.7176751205604027e+18,-0.3279836430848837,-1.3661904391046509,9.757986412406977
1.7176751207604027e+18,-0.2908114241662791,-1.3518334932441862,9.77991132955814
1.7176751209604027e+18,-0.3158525883523256,-1.3661347878023256,9.775125658802326
1.7176751211604027e+18,-0.2890529751788235,-1.4001109109882353,9.794076515658825
1.7176751213604027e+18,-0.2740616611255814,-1.3969076013023256,9.78803582527907
1.7176751215604027e+18,-0.268719548916279,-1.4177195957325581,9.787479334069769
1.7176751217604027e+18,-0.26632672461395346,-1.4150485369302328,9.783917959279071
1.7176751219604027e+18,-0.26658859288117653,-1.4337230163764707,9.790529408141177
1.7176751221604027e+18,-0.2730600190953488,-1.4483254690930236,9.779855639348835
1.7176751223604027e+18,-0.26654931365232565,-1.4483811162558142,9.785197756976745
1.7176751225604027e+18,-0.28079495353604655,-1.4690818066395352,9.79688367173256
1.7176751227604027e+18,-0.26850285109882355,-1.4410422508000005,9.780169902094118
1.7176751229604027e+18,-0.30099483007441863,-1.412711354267442,9.789593918325581
1.7176751231604027e+18,-0.3019964747011628,-1.4064232472558142,9.784585675534885
1.7176751233604027e+18,-0.31185516785411765,-1.4190845770705884,9.787770619117646
1.7176751235604027e+18,-0.3397808140883721,-1.3784884395465113,9.756762194081393
1.7176751237604027e+18,-0.32097211653720925,-1.373758429790698,9.76394062261628
1.7176751239604027e+18,-0.3169098822209302,-1.4114871275813954,9.792042421767443
1.7176751241604027e+18,-0.295302464682353,-1.4000546105529414,9.789009341058824
1.7176751243604027e+18,-0.29381636339534883,-1.4035852496860466,9.78302751583721
1.7176751245604027e+18,-0.28168530675232556,-1.4297393574418604,9.787368009186048
1.7176751247604027e+18,-0.27300436933255817,-1.4363056975581396,9.787980190500003
1.7176751249604027e+18,-0.2713742391164706,-1.4535975287882354,9.777692637682351
1.7176751251604027e+18,-0.2805723665744186,-1.450773942,9.784196132848837
1.7176751253604027e+18,-0.2532496719127907,-1.4642961719302328,9.77640561166279
1.7176751255604027e+18,-0.27007929980235296,-1.478595496682353,9.796497378635294
1.7176751257604027e+18,-0.24540343897790692,-1.4421486439534883,9.769282795639535
1.7176751259604027e+18,-0.2624870791686046,-1.4460995863488373,9.798942565895347
1.7176751261604027e+18,-0.2554755529651163,-1.3981874876976745,9.782415423232559
1.7176751263604027e+18,-0.2741330237905883,-1.415256064082353,9.775046483117647
1.7176751265604027e+18,-0.28402248371395344,-1.389506546674419,9.787701906127907
1.7176751267604027e+18,-0.2763988382569767,-1.3641871436046513,9.772955484151165
1.7176751269604027e+18,-0.2866378949825582,-1.3970745275581398,9.782359777418606
1.7176751271604027e+18,-0.2688969619129412,-1.3961134897764707,9.776228826188234
1.7176751273604027e+18,-0.26816307701162795,-1.3890057221046512,9.784251767465115
1.7176751275604027e+18,-0.26476860670116287,-1.4104854770465118,9.787534979837211
1.7176751277604027e+18,-0.24991084825581397,-1.4216148882093025,9.777741088395349
1.7176751279604027e+18,-0.25955087998235293,-1.4414926641411765,9.780282581564704
1.7176751281604027e+18,-0.2508012030325581,-1.4659655746162792,9.76778030393023
1.7176751283604027e+18,-0.3607041021441861,-1.379267495767442,9.793656160720928
1.7176751285604027e+18,-0.30690061672011765,-1.2900410694705882,9.844691702882352
1.7176751287604027e+18,-0.1964340458894419,-1.0688126641499998,9.78887045656977
1.7176751289604027e+18,-0.3192470564069767,-1.0409891431883722,9.8289363772093
1.7176751291604027e+18,-0.11619101534897674,-1.0878439524465118,9.855925183023258
1.7176751293604027e+18,0.05196647783299999,-1.0972640163647058,9.826168441729413
1.7176751295604027e+18,-0.06955879766627907,-0.9953029252441857,9.73305655645349
1.7176751297604027e+18,-0.07913008912289536,-1.2898426977313948,9.89343124206977
1.7176751299604027e+18,0.06226903488556976,-1.3674146699883722,9.77796364944186
1.7176751301604027e+18,-0.07420565328659999,-1.1951726829294118,9.835233003964705
1.7176751303604027e+18,-0.2166339190654767,-1.2192266153569764,9.764497124883722
1.7176751305604027e+18,-0.49765145916755804,-1.310098218348837,9.8549791712907
1.7176751307604027e+18,-0.3529135177674419,-1.1025904174430234,9.835892233767442
1.7176751309604027e+18,-0.13259052469764707,-1.2648178984705882,9.825211289329413
1.7176751311604027e+18,-0.46565441561627907,-0.8356515702988372,9.843404647988372
1.7176751313604027e+18,-0.21362897957767435,-1.0460530248941864,9.832052618965115
1.7176751315604027e+18,-0.3098283064832353,-0.8301687030211766,9.838611109152941
1.7176751317604027e+18,-0.2885298933383721,-0.6861279863255814,9.875846829441862
1.7176751319604027e+18,-0.4036636174034884,-0.6334858827825581,9.766389114883722
1.7176751321604027e+18,-0.5303719248186046,-0.7334836118406975,9.906118791767442
1.7176751323604027e+18,-0.21676158033732945,-0.9115246737435292,9.852404998317647
1.7176751325604027e+18,-0.8367645109906977,-0.8204599314209302,9.969890328325583
1.7176751327604027e+18,0.03656010118158139,-0.6580818708046511,11.034473840802328
1.7176751329604027e+18,-1.5170495572197324,1.2572891836680236,10.917281117837208
1.7176751331604027e+18,-0.706642750935294,2.3071314362470585,9.696618203058824
1.7176751333604027e+18,0.18029640571526742,2.782184977813953,6.8923865085
1.7176751335604027e+18,0.12793253733093024,2.4878677794883717,6.642698243651165
1.7176751337604027e+18,-0.6587863005249999,1.941789648821176,10.285308916494118
1.7176751339604027e+18,-1.5035273285720927,0.31863494183720936,10.663697553255814
1.7176751341604027e+18,-2.5998852731476747,-1.1799397985139535,12.199500150581397
1.7176751343604027e+18,-2.292546678406977,-0.10250184399538372,11.08177377983721
1.7176751345604027e+18,-1.0376967986105883,0.9015029682882357,9.728203380964706
1.7176751347604027e+18,0.21902674429534885,2.6381147850697673,6.444093989767442
1.7176751349604027e+18,0.23544262050366274,2.6278200855930236,6.411095308767442
1.7176751351604027e+18,-1.6434239797555816,1.0560694911330581,10.779554688488373
1.7176751353604027e+18,-1.2740513856870586,-0.49106350681694116,11.484366372235295
1.7176751355604027e+18,-1.82310826277093,-1.4775401540802329,12.636106890348838
1.7176751357604027e+18,-1.5202214357651167,0.0693918579567442,10.332987241418605
1.7176751359604027e+18,-0.24184202769143015,1.1695338050744186,9.523545376023256
1.7176751361604027e+18,0.8330400909688236,2.9482952959058824,5.763887481141176
1.7176751363604027e+18,0.04496280616639535,2.0127533729302325,7.73922313639535
1.7176751365604027e+18,-1.1707023876989882,1.451274753984884,10.408222009895349
1.7176751367604027e+18,-1.116125078752941,-0.022126568911411758,11.340402839176472
1.7176751369604027e+18,-1.5333541384081393,-1.1584600414441861,13.017956778255813
1.7176751371604027e+18,-1.2142740190011627,0.26554766681622094,10.481954363767441
1.7176751373604027e+18,-0.4790653551531977,1.96100162627907,9.044813949023256
1.7176751375604027e+18,0.4705133862400823,3.3265864989176475,5.931272461882352
1.7176751377604027e+18,0.16115382242209303,2.3996672117558138,7.388090311127909
1.7176751379604027e+18,-0.630759173935,2.3761285460000003,10.58417792633721
1.7176751381604027e+18,-1.7370223009465118,0.8311441613729073,10.418405411
1.7176751383604027e+18,-2.761542539,-0.4705696888897645,12.54300742447059
1.7176751385604027e+18,-2.0572153565348836,0.5590857908731045,10.738487232488373
1.7176751387604027e+18,-1.6152109268139536,1.196466963622093,9.3798091245
1.7176751389604027e+18,-1.0816121402941175,2.3938360802588234,9.568813312741177
1.7176751391604027e+18,-0.9769950442333722,3.190022119244186,8.938695031488372
1.7176751393604027e+18,0.6792277561595931,0.558696264439651,7.79297815365116
1.7176751395604027e+18,-0.3103991798336047,2.600608684294186,9.940564333209302
1.7176751397604027e+18,0.3852162865792941,1.0318414285090003,9.660472494199999
1.7176751399604027e+18,-0.21730167932749997,1.5622349492325582,9.846186992872093
1.7176751401604027e+18,-0.2760093090114535,2.1587711974651165,9.60150694294186
1.7176751403604027e+18,-0.11880642637441859,1.8493736663023257,9.829325897755814
1.7176751405604027e+18,-0.3634275347365294,1.799121118917647,9.680403283047058
1.7176751407604027e+18,-0.03144057617912792,1.5661858901860464,9.745243172244187
1.7176751409604027e+18,0.09003690879922095,1.947701987766279,9.791040708813952
1.7176751411604027e+18,0.12309124864143023,2.344521023654651,9.556655429151162
1.7176751413604027e+18,0.20116600820964706,2.0514653808705887,9.661767353752941
1.7176751415604027e+18,-0.14501618200083718,2.104181446302326,9.622875368848836
1.7176751417604027e+18,0.17929475666517442,2.069068182313954,9.665111475232557
1.7176751419604027e+18,0.2963721976447647,1.9783857612235294,9.715141464611767
1.7176751421604027e+18,0.3179671757406977,2.1311702713488376,9.660437118139534
1.7176751423604027e+18,0.31724376465360465,1.96690020316279,9.691154280313953
1.7176751425604027e+18,0.44829253575116285,1.9686252641744189,9.661939632023257
1.7176751427604027e+18,0.5786689642552941,1.9748387519058828,9.700503023847059
1.7176751429604027e+18,0.5787848431686047,1.9157049364883723,9.699223130174417
1.7176751431604027e+18,0.48440746962558145,1.9555482115930234,9.666892218023255
1.7176751433604027e+18,0.556971206222093,1.9631162078139537,9.67685303572093
1.7176751435604027e+18,0.6001762193811765,1.9600314028823531,9.653378531470588
1.7176751437604027e+18,0.6840133951151162,1.9440849256976749,9.670954427000002
1.7176751439604027e+18,0.7512906602639535,1.934291053674419,9.666280158744184
1.7176751441604027e+18,0.7373232560813953,1.9184316465697677,9.675183573406978
1.7176751443604027e+18,0.7910953174870587,1.9053624516941177,9.686596466447062
1.7176751445604027e+18,1.0425472607152675,2.2830310325465115,9.78976091116279
1.7176751447604027e+18,1.4182204020862559,2.1364010904418604,9.969111276093024
1.7176751449604027e+18,-3.818438210349999,6.572154799788238,10.698957521905884
1.7176751451604027e+18,2.3240429076604654,-6.087897269425116,7.41413316327907
1.7176751453604027e+18,19.81051254851163,-4.763553388584883,12.142406341569767
1.7176751455604027e+18,18.168924885779067,-1.5548338877576742,15.775211921860464
1.7176751457604027e+18,3.9774342617316467,-0.6779288868264706,7.220187490000002
1.7176751459604027e+18,-1.9790869141347682,4.688986379011627,8.44927936090698
1.7176751461604027e+18,-3.9799874771162793,3.9657974658837207,9.285487395651161
1.7176751463604027e+18,-3.400813099355815,2.012697739597674,10.46915548972442
1.7176751465604027e+18,-1.955358369302353,5.787759399388236,6.332534756352941
1.7176751467604027e+18,-2.2242677658790693,4.9031718221046505,8.287235171360464
1.7176751469604027e+18,-0.9411583594348836,3.9325205420581395,7.338620080500001
1.7176751471604027e+18,-0.8561237950552939,4.9710468180000005,6.6312153255058846
1.7176751473604027e+18,-2.0454738320000008,6.246324406104653,7.574452261534884
1.7176751475604027e+18,-2.394603349372093,6.662953764918604,6.753101980895349
1.7176751477604027e+18,-3.7554263707575752,6.8817579095909105,6.250415328818183
1.7176751479604027e+18,,,
