Timestamps,Gyro_X,Gyro_Y,Gyro_Z
1.717674973569219e+18,0.23444067006337213,-0.9454268925674418,0.13129330905446512
1.717674973769219e+18,0.2885803358768605,-0.44974564345,-0.1513097848462791
1.717674973969219e+18,-0.21794021603866393,-1.3838573340755815,-0.6409676274116278
1.717674974169219e+18,-1.3570882068058823,-0.3783876094923177,0.4361287015821294
1.717674974369219e+18,0.2581365374863256,0.2630341118659268,1.5177574716087205
1.717674974569219e+18,1.0578153607779068,-0.8436681895209303,-0.5354300827500001
1.717674974769219e+18,-1.70582213514692,0.15378875990139534,-0.08596145888418603
1.717674974969219e+18,1.5768737733701177,-0.30657866084769403,-1.6047777150634113
1.717674975169219e+18,1.8266810262604647,-0.8963872394925585,2.1980051176627913
1.717674975369219e+18,-0.06869032584581396,2.222347371755814,1.7876318534455586
1.717674975569219e+18,1.8948137622034888,0.515037144062093,-1.0409135865232557
1.717674975769219e+18,2.7600254065835292,0.17597577186470587,-0.245912601762353
1.717674975969219e+18,0.2596423904699884,0.5324965118279419,0.5641975529443023
1.717674976169219e+18,1.5342472649581396,1.0721600301296512,0.40981923562397676
1.717674976369219e+18,-0.32029558370430233,0.3856900764046279,0.00437549620452326
1.717674976569219e+18,0.14993676141282353,-0.7725463185903528,-0.29624785761371764
1.717674976769219e+18,0.10222395962093024,-0.41337787902558154,-0.2230935008384768
1.717674976969219e+18,-0.06374658156639651,-0.2374772347428489,-0.10217068458881397
1.717674977169219e+18,-0.30736380026536475,0.43404817435283527,0.45441153016571767
1.717674977369219e+18,0.04500155544381395,-0.0024931805481197677,-0.000880781747476744
1.717674977569219e+18,-0.0900847976656279,0.1421823288521593,0.04854244159280231
1.717674977769219e+18,-0.05772317014212792,0.12119983357186044,-0.028781675507116283
1.717674977969219e+18,-0.38437588390000005,0.04811099154762353,0.0804329245602353
1.717674978169219e+18,-0.9506085889325581,-0.5038000733406978,0.1681582884339186
1.717674978369219e+18,-0.853949893372093,-0.08898026872498023,0.05496362414706977
1.717674978569219e+18,-0.7097431871813953,0.2879517132046512,0.06662687926460467
1.717674978769219e+18,-0.7029167098211765,0.29875240343294124,-0.10121670109388237
1.717674978969219e+18,-0.5663746439418604,0.30775509653953487,-0.11724341958237211
1.717674979169219e+18,-0.11755950595011626,0.24065941424662787,-0.08672859241395349
1.717674979369219e+18,0.5175551821498836,0.4773624139104652,-0.3009290376348837
1.717674979569219e+18,-0.7298810006967058,0.48281673999411767,0.3192451208716353
1.717674979769219e+18,-1.0914058203593022,-0.1136563651638372,0.1890981661954535
1.717674979969219e+18,-0.14896932110133834,-0.7982511010930234,-0.08171381837930233
1.717674980169219e+18,-0.2515666927134235,-0.06315263753368236,0.07537352630064706
1.717674980369219e+18,0.23635849885991753,0.57295564738,0.15757469994972093
1.717674980569219e+18,0.5592786702674418,0.36847221504883726,0.038314006769779065
1.717674980769219e+18,-0.03473760710790697,0.1619573004639186,0.22950047704883722
1.717674980969219e+18,0.06611173922434117,0.4173464101924706,0.30727217144952934
1.717674981169219e+18,-0.12028708873738486,-0.017438058897189537,-0.09170074639554653
1.717674981369219e+18,-0.21640595156389542,-0.4948075742405698,-0.516891046717093
1.717674981569219e+18,0.03323885633606977,-0.5529249654501978,-0.10779632471276743
1.717674981769219e+18,0.5945025861247059,0.4838516179228235,0.18131904050552944
1.717674981969219e+18,0.17247340845,0.25395637819999994,0.058287865285488384
1.717674982169219e+18,0.0020563412941046522,0.39803522790813944,0.008310602358325583
1.717674982369219e+18,-0.17231003828375582,0.48195100072790703,-0.06921239997653489
1.717674982569219e+18,-0.5391187141941176,0.34335272048705884,-0.1433448103397647
1.717674982769219e+18,-0.7316632880744187,0.12617198917111627,-0.11558129810475583
1.717674982969219e+18,-0.531541145472093,-0.2081557264910465,-0.16087052858837209
1.717674983169219e+18,-0.3206365311244186,-0.5159037161627907,-0.15979086204965118
1.717674983369219e+18,-0.21616528253164705,-0.3314444482305883,-0.12371089684764706
1.717674983569219e+18,-0.2871242039081395,-0.07350976252089535,-0.04501931356848837
1.717674983769219e+18,-0.034240391586919765,-0.06053954061720929,-0.19212407664530226
1.717674983969219e+18,0.09704305667611766,0.05324225552047883,0.06742509796492942
1.717674984169219e+18,0.0563948944263372,-0.04290969908946861,-0.01710421393277907
1.717674984369219e+18,0.04078232715962675,-0.07143566394963954,0.007117285143976745
1.717674984569219e+18,0.002553556792701163,-0.02488208522160813,0.01424877625211628
1.717674984769219e+18,0.002653668666196472,0.002748891422784707,0.020525056515929414
1.717674984969219e+18,-0.049242094016860465,0.02678571045313256,-0.03180758693097675
1.717674985169219e+18,-0.011396889820758137,-0.0915089648819535,-0.05980792385930232
1.717674985369219e+18,0.02127727236795232,-0.05951669753686047,-0.11991417754686048
1.717674985569219e+18,0.005902031653929412,-0.027219415783203527,-0.004096386933529412
1.717674985769219e+18,0.012469455075,0.06521336639197674,0.054921005655930215
1.717674985969219e+18,-0.0014241672754499999,0.01861716959685581,0.005455164533395349
1.717674986169219e+18,-0.005629189884630233,-0.0038569716814639537,-0.008864642292662792
1.717674986369219e+18,0.01836367332571765,0.020758622649305884,-0.0335328830533647
1.717674986569219e+18,-0.0034414416142127904,0.0128210574700814,0.006478007856848836
1.717674986769219e+18,-0.004478491201644186,0.010008238220726745,0.007472438933767443
1.717674986969219e+18,-0.0036274587239647064,0.0050629910669752936,-0.00022997261323529417
1.717674987169219e+18,-0.0047199958113430225,0.010334979826144187,-0.007983860707081392
1.717674987369219e+18,-0.022378249493534886,0.004822990633744187,0.006208090941325581
1.717674987569219e+18,-0.04634403763882674,-0.0677562689317093,-0.044053294858674416
1.717674987769219e+18,0.01449725847142236,-0.026515124485952935,-0.027208636137329417
1.717674987969219e+18,0.02416112257158023,0.04680218619244186,0.04058699279683722
1.717674988169219e+18,0.04224556138837209,-0.017097110776988375,-0.009645981039906977
1.717674988369219e+18,0.04404974326046512,0.0210180103079907,0.003253210101511628
1.717674988569219e+18,0.020217827497423534,-0.023539853699627057,0.027452981843741172
1.717674988769219e+18,0.023678113295731395,-2.1309368724416914e-05,-0.05733605240173256
1.717674988969219e+18,0.0009056425335104644,-0.016358390589127907,0.015527330349069765
1.717674989169219e+18,-0.024011958102861632,-0.0325960287478093,0.06009204714186048
1.717674989369219e+18,0.022460060576151762,0.002662651758019997,0.032828591753811774
1.717674989569219e+18,-3.551472269767558e-06,0.04722837105090349,0.03267416241483721
1.717674989769219e+18,0.021362509698465117,0.022779573847217446,0.011535399931290699
1.717674989969219e+18,0.020692146084782356,0.02739908222838941,0.015551898389835294
1.717674990169219e+18,0.021305684821093025,-0.015392371623558138,-0.02511648667027907
1.717674990369219e+18,0.017129074601150002,0.01830463414240465,0.02811398593632558
1.717674990569219e+18,0.014586172431277912,-0.0001065460768406972,-0.001449028124151163
1.717674990769219e+18,0.017530022534329413,0.0008372441172117648,-0.007287257307247059
1.717674990969219e+18,0.01340706130483721,-0.003828559419946511,-0.002940674681988372
1.717674991169219e+18,-0.0019924134938686046,-0.012522727874390698,0.0016905327442209301
1.717674991369219e+18,-0.0007280654854011627,-0.004155301061573256,0.0038214564119186055
1.717674991569219e+18,-0.019768662191895294,0.0249556229548,0.020036364735129413
1.717674991769219e+18,-0.0022055057538372088,-0.006357255344651163,0.009745424113162792
1.717674991969219e+18,0.010849953039232555,0.03621859894081396,-0.004006136454895348
1.717674992169219e+18,0.005906209945975579,0.03655954689767092,-0.004375496555244186
1.717674992369219e+18,-0.007493873668094118,-0.03339993026943883,-0.0007042911874235292
1.717674992569219e+18,0.006190333201156976,0.015420784326109303,0.02400840632776744
1.717674992769219e+18,0.14855023883525467,0.09382456835372094,0.025542671504709305
1.717674992969219e+18,0.8160833799430233,-0.07501561551316628,0.12146264706809301
1.717674993169219e+18,0.3941676863905882,-0.21684621747259994,0.11960013659931763
1.717674993369219e+18,0.22056125173453486,-0.383175588622093,-0.05149732129390699
1.717674993569219e+18,-0.06969896097552324,-0.05580889034767441,-0.060219902241
1.717674993769219e+18,-0.3138317800647059,0.24909269046964708,0.005303743499741176
1.717674993969219e+18,-0.7318763822988371,0.19701809771775583,-0.03875439818425582
1.717674994169219e+18,-0.5635760337683721,0.14569125062139535,-0.07184053941765116
1.717674994369219e+18,0.27038224917496506,-0.07929166984217441,-0.011947378170465112
1.717674994569219e+18,0.5514833296094117,-0.33420412260117643,0.030011427446023527
1.717674994769219e+18,0.5630859198953488,-0.06461670810151862,0.04526081848641861
1.717674994969219e+18,-0.09322435751256976,0.22034460929569777,0.008324808216430233
1.717674995169219e+18,-0.32460004766627903,0.21758861298616275,-0.010398907549174418
1.717674995369219e+18,-0.5816349001470589,0.20630340935235297,-0.041855017318388234
1.717674995569219e+18,-0.12439266643108139,0.05272615429974417,0.014959083788662795
1.717674995769219e+18,0.416478372072093,-0.16694366210739883,0.05743549557845348
1.717674995969219e+18,0.5047838486895349,-0.3087637334360465,0.002727582262697674
1.717674996169219e+18,0.26373008777208,-0.06293703956715294,0.019720152676776473
1.717674996369219e+18,-0.1619679547616988,0.15045031216116278,-0.03768893639227907
1.717674996569219e+18,-0.44423009940697683,0.21952065163151163,-0.04402488219234883
1.717674996769219e+18,-0.6612629203258824,0.07281867466229058,-0.07127713974978823
1.717674996969219e+18,-0.03892842146989534,0.06021279898003954,0.01821229415111628
1.717674997169219e+18,0.5247150881360465,-0.1227340986068256,0.09299350815930232
1.717674997369219e+18,0.5814971005546512,-0.22041563915186047,0.05783326773395348
1.717674997569219e+18,0.2640319281172341,-0.034003608072674114,0.02286790262407059
1.717674997769219e+18,-0.12385283387025582,0.048393276625780225,0.004347084250220932
1.717674997969219e+18,-0.36503077333139533,0.24950985077860469,-0.07584667592343022
1.717674998169219e+18,-0.6022736073244186,0.13578955749760466,-0.024576653028116284
1.717674998369219e+18,-0.21866623525928236,-0.10847161836929413,-0.1111486429822353
1.717674998569219e+18,0.4155549729267441,-0.214932060872093,0.04858505898196512
1.717674998769219e+18,0.4756186070790698,-0.20163509890232553,0.00907773492846512
1.717674998969219e+18,0.38549474401511624,-0.039003005791593034,0.040828496727139535
1.717674999169219e+18,0.010285884480176472,0.07027460311890589,0.01080871354387059
1.717674999369219e+18,-0.24596896602627905,0.18058157320051163,-0.03295828602568605
1.717674999569219e+18,-0.4407069766267442,0.1035557868253802,-0.03987668478317442
1.717674999769219e+18,-0.25947200182470587,0.14760289796988235,0.007186644647788236
1.717674999969219e+18,-0.28372893361511625,-0.08129473661823607,-0.025684732774569764
1.717675000169219e+18,-0.1295779153856186,-0.2163242659062825,-0.11985735210798835
1.717675000369219e+18,-0.05353235337298837,-0.012821057151511628,-0.030259115709127905
1.717675000569219e+18,-0.07401345498623528,-0.06619977577195646,-0.018699648996129414
1.717675000769219e+18,-0.1226026922656977,-0.0063856679607674416,0.0058103183953953485
1.717675000969219e+18,-0.002716927550198839,0.02787958424295117,-0.044735190322732564
1.717675001169219e+18,0.01732796100824419,0.04356318242441861,0.027318441239395353
1.717675001369219e+18,-0.0690259234855294,-0.08339022919611765,0.033748482453223524
1.717675001569219e+18,-0.0653092580010465,-0.07940531853197673,0.007131491157732557
1.717675001769219e+18,0.007738804520487211,0.07028496500920582,-0.05479315025988373
1.717675001969219e+18,0.07195063736976745,0.07758693029472208,-0.0315092577779535
1.717675002169219e+18,0.026283355474905883,0.01410378984839059,-0.003650815385047059
1.717675002369219e+18,0.00013851008147093026,-0.002095408203897674,-0.004148198068813954
1.717675002569219e+18,0.003817904974388372,0.0035160240506813957,0.015314237892139534
1.717675002769219e+18,-0.003138766916136471,0.0025189189238564703,-0.002472205713141177
1.717675002969219e+18,-0.009209141626431397,0.017338615825651167,0.0024860775989534885
1.717675003169219e+18,-0.017462919140651158,0.0018254914290453492,0.005142629074488371
1.717675003369219e+18,0.0077388043885093,-0.00610154468666279,-0.02483236354932558
1.717675003569219e+18,0.008230504621221177,0.011703450557816472,0.017463546059470588
1.717675003769219e+18,-0.004151749533354651,0.02384503568633721,0.001008637212953488
1.717675003969219e+18,-0.016539519045143017,0.008331911461120932,0.017842933843465116
1.717675004169219e+18,0.000763580987958139,-0.011869244657102325,-5.6824652267441424e-05
1.717675004369219e+18,0.04400562076552941,-0.10346971377811762,0.024290858125164703
1.717675004569219e+18,-0.03915572201986162,-0.03603391893289535,0.011123421390651162
1.717675004769219e+18,0.04887983701281394,0.0019391405244790704,-0.06953914165696512
1.717675004969219e+18,0.013904276794220927,0.013545571151226744,0.02010171311780233
1.717675005169219e+18,0.009049782097195293,0.03008688687235293,0.02758234105436471
1.717675005369219e+18,0.007028496590695347,0.014596827140609307,-0.0014632342743372093
1.717675005569219e+18,0.013364442624053483,0.008047788497397677,-0.005682463088790698
1.717675005769219e+18,0.008690617069381394,0.001640811217304651,-0.005426752253813953
1.717675005969219e+18,0.0026680418209870586,0.005019871172000001,-0.021042494821858826
1.717675006169219e+18,-0.006950362543291862,0.010221330655794187,4.26184810813954e-05
1.717675006369219e+18,-0.011055942032802326,0.0050787014541453495,0.00042618472727906973
1.717675006569219e+18,-0.012280178677905883,-0.003632848709984705,0.003435216071352941
1.717675006769219e+18,-0.004663171199783719,0.004141094960489535,0.003409477854755814
1.717675006969219e+18,-0.008996049237980232,0.009099044268582558,-0.0023013975534883725
1.717675007169219e+18,-0.005472922173294187,-0.003160870051533721,-0.0025002837849883723
1.717675007369219e+18,0.005341473612807059,0.003539422422237647,0.0003880788079176469
1.717675007569219e+18,0.004045203511438373,0.009525228865631397,0.006364358639174419
1.717675007769219e+18,0.002766649284977907,0.005391236850359302,-0.0017899758801395347
1.717675007969219e+18,0.00016692241175116285,-0.0027062729797220934,0.0025144898641279063
1.717675008169219e+18,0.0013456992439023529,-0.0009019238267717646,0.003449589283741177
1.717675008369219e+18,0.0014880950839372097,0.007294862065317444,0.0034805085987790695
1.717675008569219e+18,-0.00035870542899883723,-4.972155009418595e-05,-0.0019320374514186045
1.717675008769219e+18,-0.004606346537901162,-0.004070064094937209,0.0007529263682209303
1.717675008969219e+18,-0.0044179896345941175,-0.0019799205361705884,0.004973157947317647
1.717675009169219e+18,-0.011510539110767442,-0.008346117617173255,-0.001406409653127907
1.717675009369219e+18,-0.006524177847443024,-0.006414080186419763,-0.0017899759225581402
1.717675009569219e+18,-0.002635701830831765,-0.0037622083211764712,0.0004743185470117647
1.717675009769219e+18,-0.004677377379499999,0.0037007041648569774,0.004631207408558139
1.717675009969219e+18,-0.0031004939030616287,0.0014277189290523254,-0.004219228849604651
1.717675010169219e+18,-0.00021664386596395346,0.0007742356409174419,0.0015768835437441865
1.717675010369219e+18,-0.004259883478465883,-0.000758190955617647,0.0005461849820117649
1.717675010569219e+18,-0.007887969013943024,-0.005334412031556978,-0.00272758229266279
1.717675010769219e+18,0.0003516024827988372,-0.001228832606867442,-0.0003267416451627908
1.717675010969219e+18,-0.006296879290318603,-0.008985394597253489,0.003991930336581395
1.717675011169219e+18,0.00485278175240706,-0.001175016364249412,-0.005749315572505883
1.717675011369219e+18,0.010878365340151162,0.0003054324905197676,0.004077167323255813
1.717675011569219e+18,0.0005078702315918608,-0.010590690474293023,-0.0034663024747906977
1.717675011769219e+18,0.018592308762860468,0.01488095023401628,-0.00022729850634883698
1.717675011969219e+18,0.014870964096832941,0.00800951533359647,0.0016241816853764704
1.717675012169219e+18,-0.0017367027456011627,-0.005107113663156976,0.0043754965662674405
1.717675012369219e+18,0.004201471239426744,-0.0037291163309337203,-9.94430983255813e-05
1.717675012569219e+18,0.0013600725234329415,-0.00624878725365059,0.007244137669952939
1.717675012769219e+18,-0.0047342019816418585,0.016216328920096515,0.005554607663093024
1.717675012969219e+18,-0.0025890721662279064,0.01638680300380233,0.009020910048872094
1.717675013169219e+18,-0.010160954127488374,0.010221330559965115,-0.0037362194840465115
1.717675013369219e+18,-0.009247414602929414,-0.0014481087527905884,0.004024520929682354
1.717675013569219e+18,-0.004620552727061627,-3.551534124302336e-05,-0.0026281391901395346
1.717675013769219e+18,-0.008314153678733721,0.0013424819491127914,-0.0020314805305000003
1.717675013969219e+18,-0.006410528629627905,-0.0013566879851825578,-0.007188315800802325
1.717675014169219e+18,0.0028261480086588238,-0.007757982596628235,0.0005605582750823529
1.717675014369219e+18,0.0073978566552732545,-0.0053628245135662785,-0.002983293139709303
1.717675014569219e+18,0.011574467062406973,0.003956415035097675,-0.001065461835511628
1.717675014769219e+18,0.01452934782593023,0.005348618405316279,-0.0006676893857441861
1.717675014969219e+18,0.011636974147007057,0.004559925993451765,0.0010061301879294117
1.717675015169219e+18,0.01752684699723256,0.009752527379043028,-0.0014064096597558142
1.717675015369219e+18,0.004300914305086045,9.234001573953511e-05,-0.0015910896403139537
1.717675015569219e+18,-0.0029662874805588234,-0.0010744033464964704,-0.002802791354576471
1.717675015769219e+18,-0.0003729115689186046,0.0006321740014697676,0.005426752238593023
1.717675015969219e+18,-0.004549521972539535,-0.0007600293985616281,-0.00544095838722093
1.717675016169219e+18,-0.005728632963099998,-0.004822990504482558,0.0015910896537674423
1.717675016369219e+18,-0.003670578616238824,-0.0022961328846470594,-0.0007330377571999998
1.717675016569219e+18,-0.008754544479709303,-0.0074937479973790685,-0.0021735421114302323
1.717675016769219e+18,-0.014522244687406975,-0.01529292859519651,-0.007003635715000003
1.717675016969219e+18,-0.0037965955856069777,-0.007692634346027908,-0.0005824524641395352
1.717675017169219e+18,-0.00581219867935059,-0.008720992998470588,-0.007042911600764704
1.717675017369219e+18,-0.006041168526047673,-0.0025073868270930237,0.0026565513999999993
1.717675017569219e+18,0.0017295997354988372,-0.0011009772150023256,-0.00595238008172093
1.717675017769219e+18,0.010324325169348834,0.005192350604897673,0.0018894189906511628
1.717675017969219e+18,0.010386498035465883,0.006859652240081175,0.0008623973480352939
1.717675018169219e+18,0.01100622078633721,0.004581485868209302,0.0017757696537790697
1.717675018369219e+18,0.013392855310034889,0.014298497926139537,0.0025571083748953485
1.717675018569219e+18,0.008877302681021179,0.007520823466135293,-0.00011498632098823531
1.717675018769219e+18,-0.003356204716067442,-0.006840264800405816,0.002827025399034884
1.717675018969219e+18,-0.0018077335268848833,-0.0008168540214418605,0.0004545970654186047
1.717675019169219e+18,-0.004464284967258138,-0.0029477776873500002,-0.002386634510209302
1.717675019369219e+18,-0.009276161244258825,-0.009238431370678826,0.0013942090493294116
1.717675019569219e+18,-0.01088546827463023,-0.004084270263691861,-0.0008807817831976744
1.717675019769219e+18,-0.007603845791895351,-0.005320205993324418,-0.001662120465418605
1.717675019969219e+18,-0.014721130849686044,-0.012678995390889536,0.004077167303116279
1.717675020169219e+18,-0.011130315442710589,-0.0063637735069682335,0.002644685141270588
1.717675020369219e+18,0.00016692235721162794,0.0021238206617813955,0.0013069664414186043
1.717675020569219e+18,0.0010761165003255815,0.0027773038161523255,-0.0005966586028953487
1.717675020769219e+18,0.00755412445060465,0.007422717401824417,0.0005256278550581397
1.717675020969219e+18,0.011162655664058826,-0.00025512588044235296,0.004053267513188236
1.717675021169219e+18,0.005337963808269768,-0.002024377460653489,0.005526195329081394
1.717675021369219e+18,0.011617085544313953,0.01159932785996512,-0.0033526532380232553
1.717675021569219e+18,0.00796610300346279,0.006541935707989539,0.0035941578812674403
1.717675021769219e+18,-0.003555592307430589,-0.004509619371178823,-0.002041007044258823
1.717675021969219e+18,-0.005089355946834884,-0.001953346625990698,-0.002997499277488372
1.717675022169219e+18,-0.008399390537325583,-0.016713544239197676,0.00034094774318604664
1.717675022369219e+18,-0.011288421649988233,0.0015990285044400004,0.0007905309074941173
1.717675022569219e+18,-0.008825575461918604,0.002791510027602325,-0.0012785541855697671
1.717675022769219e+18,-0.003967069516272091,-0.0026494483812627913,-0.0007813386849186045
1.717675022969219e+18,-0.007674876594409303,-0.0017260481176406975,0.002173542115453488
1.717675023169219e+18,-0.008370644034823531,-0.0027129582501670578,-0.004455719615788236
1.717675023369219e+18,-0.001921382789590697,6.392771625581415e-05,0.0019036251145348835
1.717675023569219e+18,5.3273126402325594e-05,0.0005753493674174419,-0.0030827362410348826
1.717675023769219e+18,0.002596175389575582,-0.003146663893982558,-0.0003267416316279071
1.717675023969219e+18,0.020835878771600005,0.005810402053567059,-0.0008480240809411764
1.717675024169219e+18,0.029388988399837206,0.016202123163930233,-0.00019888620590697672
1.717675024369219e+18,-0.002986844565786047,-0.008289292915004654,0.00781338674067442
1.717675024569219e+18,0.004897572926879069,-0.000760029419610465,-0.00894987927765116
1.717675024769219e+18,0.005111500916484705,0.0003772988920705882,0.002414712578282354
1.717675024969219e+18,-0.00187876428952093,-0.0003196385210558138,0.00021309235812790717
1.717675025169219e+18,-0.007618051965560464,0.009908795074744186,0.0014206157769883724
1.717675025369219e+18,-0.006085291133660001,-0.0038484480769823536,-0.004197000379623529
1.717675025569219e+18,-0.012164022372825586,-0.002308500602727907,0.004815887370581396
1.717675025769219e+18,-0.008470421380930234,-0.0015129557431918601,-0.0032674162825930223
1.717675025969219e+18,-0.006822507050273257,-0.0020101712891337216,0.0010938741602790699
1.717675026169219e+18,-0.006818328879847059,-0.002554852068696471,0.002831537925776471
1.717675026369219e+18,-0.0033988231403604646,-0.006570347949844186,-0.0011933172490116279
1.717675026569219e+18,0.010793128381651161,0.0053202060681116275,9.944308877906974e-05
1.717675026769219e+18,0.012710959647720933,0.002265882191220929,0.002684963823802325
1.717675026969219e+18,0.014569125082682354,0.009849296422604705,-0.004484466181141176
1.717675027169219e+18,0.015864726638209304,0.00970990895193023,0.0026565515137558136
1.717675027369219e+18,0.012227950335941859,0.001953346665018604,0.001562677383627907
1.717675027569219e+18,0.005266933027008138,0.0034876117207337204,-0.002585520699860465
1.717675027769219e+18,-0.0037136984628035295,-0.0047683385433423525,0.0005461850177176469
1.717675027969219e+18,-0.015118903193476741,-0.013673426513608143,0.011947378593965118
1.717675028169219e+18,-0.012732268809430231,-0.008999600846315113,-0.005270484528639535
1.717675028369219e+18,-0.011460901221211765,-0.007384277189677645,0.0056343292868941165
1.717675028569219e+18,-0.010416665029151163,-0.00652772938472558,5.682460268604631e-05
1.717675028769219e+18,-0.010359840373941862,-0.0038569718200197668,-0.003167973204581395
1.717675028969219e+18,-0.0025322475672093026,0.0008026479117744189,-0.0005824524546627907
1.717675029169219e+18,-0.0042311369145458825,0.00036292553553647064,-0.00014373288515294116
1.717675029369219e+18,-0.0031999369838069773,-0.003785940987027907,-0.0037930441063139544
1.717675029569219e+18,0.0066875488327046515,0.004780372096032559,-0.000454597062755814
1.717675029769219e+18,0.010807334613558138,0.007138594286280231,-0.002017274413709302
1.717675029969219e+18,0.009351621201807058,0.005364830107147058,0.0008049041826941176
1.717675030169219e+18,0.013506504588139534,0.009368961081697675,0.0007387202078372093
1.717675030369219e+18,0.011290343878953488,0.003146663897483722,-0.003466302507418605
1.717675030569219e+18,0.012512073456593024,0.006712409564022092,-0.0005824524547093022
1.717675030769219e+18,0.0065200833289999986,0.005422323284409411,-0.0028027913684352938
1.717675030969219e+18,-0.00013140683672558125,-0.0008452663730651161,0.0008381632964302325
1.717675031169219e+18,-0.004847851265380233,-0.00044749393310116267,-2.841231404651162e-05
1.717675031369219e+18,-0.006243397317377648,-0.006090681211603528,-0.001667301538952942
1.717675031569219e+18,-0.0010548071403767444,-0.0016123988708825587,0.0010086371980813954
1.717675031769219e+18,-0.005899106929947675,-0.0015555742612383718,-0.002869643855790698
1.717675031969219e+18,-0.006907744078511627,-0.005732184669447674,-0.0033242408861744194
1.717675032169219e+18,-0.0030812737631482363,4.671318050588235e-05,0.0010636233957882352
1.717675032369219e+18,-0.005700220737069767,-0.0008026479064360467,-0.0025855207242906973
1.717675032569219e+18,-0.007845350545186047,-0.003686497876504651,0.0007529263790813953
1.717675032769219e+18,-0.0025038352323209297,0.0006321740108406978,-7.10308086279069e-05
1.717675032969219e+18,0.00010959638094117656,-0.0022961328779200004,-0.0028890311047294116
1.717675033169219e+18,0.006715961139926742,0.00425474417890814,8.12790698965188e-12
1.717675033369219e+18,0.011290343906848837,0.009482610347697673,-0.0013922034644069763
1.717675033569219e+18,0.013605947704511623,0.007834695945744185,0.00022729852667441848
1.717675033769219e+18,0.011910066684505881,0.006457200130284704,0.001969140580470588
1.717675033969219e+18,0.015367511091104647,0.009724115147763954,-0.006463801755953485
1.717675034169219e+18,0.020794263234360465,0.003885384112272093,0.0024150468994302327
1.717675034369219e+18,-0.0015433318057541177,-0.0003126189978494117,-0.0014660754925882355
1.717675034569219e+18,-0.01401082294051163,-0.009198487088015118,-0.0015626773765581397
1.717675034769219e+18,-0.002347567464239535,-0.0003480507256627908,0.002755994612104652
1.717675034969219e+18,-0.00612640546157907,-0.0038995902157104656,-0.0017757697482790706
1.717675035169219e+18,-0.00686144878115294,-0.0064787600266058825,-0.0008911439026000002
1.717675035369219e+18,-0.0027169276412790694,-0.0019533466679441864,0.0010086372088953489
1.717675035569219e+18,-0.006126405416720928,-0.00124303879814186,-0.0026707576377674415
1.717675035769219e+18,-0.0072344857371279036,-0.0045672795855755816,-0.0011222864539302323
1.717675035969219e+18,-0.0028369278865047055,-3.9526540009411726e-05,-0.0005174384206235293
1.717675036169219e+18,0.002212609116517442,0.000390669327945349,-0.002045686714127907
1.717675036369219e+18,0.007866659855916277,0.0035302302034883734,0.0024576652739418605
1.717675036569219e+18,0.012554692018488377,0.009681496601639535,-0.00024150467896511636
1.717675036769219e+18,0.01040087132464706,0.007118371312858821,-0.00018685276291764713
1.717675036969219e+18,0.007255795131344186,0.0018823158879430224,0.002755994610767441
1.717675037169219e+18,0.010281706689348833,0.006712409617069769,-0.0006534832578488372
1.717675037369219e+18,0.0048527817254188236,0.0016565215353599994,0.001509195379917647
1.717675037569219e+18,-0.0036829463133523257,-0.002322706750232559,-0.00011364925588372081
1.717675037769219e+18,-0.007092424114144185,-0.004609898154568606,-0.0016337081405697672
1.717675037969219e+18,-0.0037823894637616278,-0.004794578121743023,0.00015626773833720924
1.717675038169219e+18,-0.008888082491164706,-0.006967451661764705,-0.0003880788106588234
1.717675038369219e+18,-0.0094790584947907,-0.005618535225420932,-0.0018894189853488374
1.717675038569219e+18,-0.006879331764639533,-0.0020954081862988375,0.001008637195348837
1.717675038769219e+18,-0.006012756198837209,-0.002251675910780233,-0.0008239571457209303
1.717675038969219e+18,-0.010124185275823532,-1.0779981783529322e-05,0.002170366632329411
1.717675039169219e+18,-0.0034414416798662782,0.0004048754916755815,8.52369554767442e-05
1.717675039369219e+18,0.0007351687094116279,-0.0015129557953232565,-0.0025429022268837215
1.717675039569219e+18,0.007610949124215115,0.006755028111130236,0.0009091940833488373
1.717675039769219e+18,0.007439973765540002,0.00394187449439294,-0.00047431851955294114
1.717675039969219e+18,0.011943827312930231,0.0077068405013837205,0.0017331512347906982
1.717675040169219e+18,0.009685048128313951,0.007209625071590699,0.0005682463078255813
1.717675040369219e+18,0.006994401803599999,0.005407949966369412,-0.0017822878613294117
1.717675040569219e+18,0.0023120522672883735,-0.0013566879943627905,0.001449028074709302
1.717675040769219e+18,-0.005046737485815117,-0.002663654515125582,-0.002883850035093023
1.717675040969219e+18,-0.0064531470036860465,-0.006882883423566275,-0.0007955448385697675
1.717675041169219e+18,-0.0037855649545741185,-0.003992180928922353,-0.0003593322204823529
1.717675041369219e+18,-0.005657602225931395,-0.005561710605976743,-0.0026849637913720923
1.717675041569219e+18,-0.008285741365000003,-0.007863108260723254,-0.0016195019936976745
1.717675041769219e+18,-0.004123337227818605,-0.0017970789350813961,0.0006392770961627906
1.717675041969219e+18,-0.0036993252159705893,-0.0007150711067258821,-0.002242233087941177
1.717675042169219e+18,-0.004577934187688372,-0.0018539034969651171,0.0004119785816627907
1.717675042369219e+18,-0.001978207407789535,0.0009305033207988376,-0.002400840669255814
1.717675042569219e+18,0.004769717508452326,0.0019107282123872102,-0.0006392771110465117
1.717675042769219e+18,0.008805436211941176,0.0088144195406,0.0010061302181294117
1.717675042969219e+18,0.014202606148395351,0.011016875349920933,-0.0019036251402325584
1.717675043169219e+18,0.019984512471046514,0.009681496577080234,0.004972155208372094
1.717675043369219e+18,0.01390795373006941,-0.0038915679483823525,-0.0031764968846352943
1.717675043569219e+18,-0.0008559209685686047,-0.03195675183034883,-0.006179678539511629
1.717675043769219e+18,0.00701429047775465,-0.013531365150674423,0.00038356624479069765
1.717675043969219e+18,-0.0023901859996569757,-0.0017544604819093022,-0.004773268894686046
1.717675044169219e+18,-0.011590260658365884,0.004732405375549411,0.0005749315544470588
1.717675044369219e+18,-0.008285741343302327,-0.00043328779066511614,-0.0025286960730348845
1.717675044569219e+18,-0.009493264808290696,0.0003906693279197675,-0.00014206156984883722
1.717675044769219e+18,-0.011311652853139537,0.0019533467186127903,0.0011364926224534883
1.717675044969219e+18,-0.006674595914730591,0.0027488915157905885,0.00031621234272941176
1.717675045169219e+18,-0.006936156357163954,-0.0010299464338406972,0.0002557108256046512
1.717675045369219e+18,-0.007532815069988371,-0.004467836547776744,0.0008239571403720931
1.717675045569219e+18,-0.0013389303036406975,0.0008452663690127908,-0.0007671325285930233
1.717675045769219e+18,-0.0024057291841882355,0.00047791185347764703,0.00011498631689411761
1.717675045969219e+18,-0.0021628874520837216,-0.0034591993696511626,-0.0013353788391046511
1.717675046169219e+18,0.010310119097593023,0.00617257553117907,7.10307705465115e-05
1.717675046369219e+18,0.011967559827317646,0.006097867862855292,-0.002213486487941177
1.717675046569219e+18,0.006772785811872095,0.006186781683301162,0.0018468005000697675
1.717675046769219e+18,0.007156352084227906,0.0056895661669593015,0.0013922034698372093
1.717675046969219e+18,0.007738804566755813,0.006371461705302325,0.000653483270011628
1.717675047169219e+18,0.005168994140056469,0.00747770360414353,0.0016529282473058818
1.717675047369219e+18,-0.0027311337788011635,-0.00014916466422209288,-0.002244572913290697
1.717675047569219e+18,-0.0027595460983837207,-0.0032176946734941863,0.00019888619232558152
1.717675047769219e+18,-0.006850919453441861,-0.006769234016697673,0.003409477846802326
1.717675047969219e+18,-0.006473369967729411,-0.006047561293574116,-0.004484466223694117
1.717675048169219e+18,-0.004421666535681395,-0.006442492334965119,0.0005256278335232558
1.717675048369219e+18,-0.007177661118884885,-0.0034449931628918605,-0.0015200588846744191
1.717675048569219e+18,-0.006382116317093022,-0.005661153789004651,-0.0016337081623139535
1.717675048769219e+18,-0.0023482360526176464,-0.0007725642760976468,-0.00020122604636470584
1.717675048969219e+18,-0.002802164540908139,0.0006321739974616279,-0.0010796679985581397
1.717675049169219e+18,-0.0037965956132848828,-0.0021522328237279075,-0.0007955448073488371
1.717675049369219e+18,0.0043928365046999995,0.00246142571599647,-0.0007617843077294116
1.717675049569219e+18,0.008250226196918604,0.006385667869790695,-0.0006961017308720932
1.717675049769219e+18,0.009344100298523256,0.008346117742931397,0.0010228433407209303
1.717675049969219e+18,0.014941326351860466,0.013360891356981396,-0.008253777613220931
1.717675050169219e+18,0.015259042990694121,0.008670686628258822,0.004082014056588235
1.717675050369219e+18,0.008236019999532556,0.00331713780896628,-0.0015342650343023257
1.717675050569219e+18,-0.0022623305630069764,-0.002720479143131396,0.0010370495227674421
1.717675050769219e+18,-0.003313586260915117,-0.004411011880006976,0.0009376064029883721
1.717675050969219e+18,-0.006070917905141176,-0.006335027024274118,-0.0033920962172000004
1.717675051169219e+18,-0.009322790889232558,-0.004894021251083722,0.0017473574100116281
1.717675051369219e+18,-0.004876263605089535,-0.0021522328657534893,-0.0018325943694883725
1.717675051569219e+18,-0.006410528575453489,-0.00644249238382558,-0.0023582221894302333
1.717675051769219e+18,-0.007551366634341176,-0.004394632984604706,0.0020553803359294113
1.717675051969219e+18,-0.005472922219445351,-0.0026778606463534887,-0.002287191395790698
1.717675052169219e+18,-0.0013247241868569772,-2.130924322441853e-05,-0.0007245140434883721
1.717675052369219e+18,-0.003210633359532941,0.0013403091815964707,-0.0011211165405411766
1.717675052569219e+18,0.002780855483243024,-0.0014135125954953486,-0.0018325943748604657
1.717675052769219e+18,0.010622654516453488,0.008019376099906975,0.0015200588834069766
1.717675052969219e+18,0.01042376828510465,0.006030513924093023,-0.0006534832578837208
1.717675053169219e+18,0.00466592900608706,0.0005497783308152943,0.003837668156152941
1.717675053369219e+18,0.015225449599046512,0.015477608946255812,-0.0031537670102325575
1.717675053569219e+18,0.010821540617509298,0.00932634259163372,0.0029548807840232565
1.717675053769219e+18,-0.004819438980743023,-0.0036012609224686043,-0.0024718713954302316
1.717675053969219e+18,-0.006401503505992943,-0.0047827118236552935,-0.0010636233984823529
1.717675054169219e+18,-0.004080718803609303,-0.005206556687386048,-0.0011506987760465115
1.717675054369219e+18,-0.006254260869674419,-0.00671240939676744,-0.001434821929244186
1.717675054569219e+18,-0.008470421418488373,-0.006343049402524421,0.001108080297651163
1.717675054769219e+18,-0.0065164897332305885,-0.0033741295505364715,-0.0020841269083058827
1.717675054969219e+18,-0.004961500518267443,-0.0030898392518197686,-0.00045459705602325564
1.717675055169219e+18,-0.005515540601965115,-0.0027915099250104664,-0.00022729852395348844
1.717675055369219e+18,-0.003699325178108236,-0.0034603692059905883,-0.0012361028410117646
1.717675055569219e+18,-0.0017935273831674418,-0.0009589156418220927,0.0020030682344186045
1.717675055769219e+18,0.013676978144567442,-0.01618791676553837,-0.002599726862930233
1.717675055969219e+18,0.005820973215090698,0.0011009773054802326,-0.00312535470527907
1.717675056169219e+18,0.003918517948238824,0.018070817803999994,0.0032052434406470596
1.717675056369219e+18,0.008548555486813953,0.009709908919139535,-0.0009660187359069767
1.717675056569219e+18,0.010452180646790696,0.0076216035797093025,-0.0008239571565813953
1.717675056769219e+18,0.0069432596810441866,0.007905726770593023,0.0009518125620348836
1.717675056969219e+18,-0.0009396537237952942,0.005292963653605882,-0.002716551628070588
1.717675057169219e+18,-0.0030862877140186047,-0.002905159226247675,-5.682464139534883e-05
1.717675057369219e+18,-0.007689082773058137,-0.004382599533640698,-0.0005540401556046512
1.717675057569219e+18,-0.01067237574351163,-0.013858106601430234,-0.00029832931263953504
1.717675057769219e+18,-0.005999051400208235,-0.004595859088494116,0.0005174384000941174
1.717675057969219e+18,-0.006694651728732559,-0.005362824369655813,-0.0008381633046976744
1.717675058169219e+18,-0.006794094849802329,-0.004837196627945349,0.0012075234026395348
1.717675058369219e+18,-0.0027794347245823528,-0.004768338527892941,-0.0017966611434235287
1.717675058569219e+18,-0.0011542502732988374,0.00026281391140465116,0.0020172743879302325
1.717675058769219e+18,-0.002020825873366279,0.001257244935467442,-0.0024292529805000004
1.717675058969219e+18,0.0038036987769383716,0.003629673276923255,-0.002372428367372094
1.717675059169219e+18,0.008359864258576469,0.016949701494588236,0.005030651141223528
1.717675059369219e+18,0.010509005277837208,0.01827622220139535,-0.00031253545758139537
1.717675059569219e+18,0.011588673237139533,0.020932773550813952,-0.0016052958830116279
1.717675059769219e+18,0.006019859392091861,0.0026494483849476736,-0.0012501418985465115
1.717675059969219e+18,-0.004906681468531764,-0.00942528419896353,0.0032771098866941177
1.717675060169219e+18,-0.01487739837893023,-0.011869244558872089,0.00029832932853488366
1.717675060369219e+18,-0.009834212521569768,-0.006939708003339532,-0.00379304409838372
1.717675060569219e+18,-0.002503835252219767,-0.0007174109557488372,0.002812819245523256
1.717675060769219e+18,-0.003728071776589412,-0.004222153538494118,-0.005102517620282352
1.717675060969219e+18,-0.007120836461232556,-0.0058742461789232535,0.0025571083548488376
1.717675061169219e+18,-0.003640327854844186,-0.002194851349219768,-0.002386634491069767
1.717675061369219e+18,-0.0020895168302482348,-0.000758190992310588,-0.00010061301839999996
1.717675061569219e+18,0.008449112295861627,0.0033455502182813956,0.0023013975518720933
1.717675061769219e+18,0.021419334047625582,0.01647203970909535,-0.01635128741245349
1.717675061969219e+18,0.037600147820697684,-0.013886518999480233,-0.030685300607511633
1.717675062169219e+18,0.009322874415482352,0.005177977346996471,0.069135520091
1.717675062369219e+18,0.044646402129302314,0.031686834449795344,0.043726553406209304
1.717675062569219e+18,-0.004123337127720929,0.0021238205012906975,-0.02906579858404651
1.717675062769219e+18,0.034773122324765114,-0.04035259079958023,-0.014149332835476744
1.717675062969219e+18,0.017645008951172943,-0.017201233461709414,-0.004700065619835295
1.717675063169219e+18,0.038665609262674414,0.006570347923215116,-0.01971814683265116
1.717675063369219e+18,0.05507372181127905,0.04722837133709303,0.017800315438081395
1.717675063569219e+18,0.022712094443244187,0.05389105909918604,0.004972155264720932
1.717675063769219e+18,-0.07414281410107058,0.031955414470444705,-0.007330377355858824
1.717675063969219e+18,0.027599013457337205,0.11975080606422094,0.08211159117332557
1.717675064169219e+18,0.7885518469174418,-0.1606077154264884,0.0848675861193837
1.717675064369219e+18,0.5878908760435294,0.2453556353542352,0.26468411479251763
1.717675064569219e+18,0.18089766054186046,-0.28259599002299995,-0.04942322253546511
1.717675064769219e+18,0.04045558587069767,-0.25580317812841863,-0.06074552982502326
1.717675064969219e+18,-0.3822486353802325,0.33382339619534884,0.03795885370702326
1.717675065169219e+18,-0.6450354772505882,0.4561399172317646,-0.052318772336329394
1.717675065369219e+18,-0.43772368054895355,0.1742314197501279,-0.11825205641515114
1.717675065569219e+18,0.2049770967791046,-0.03616177409907674,0.055915436712627914
1.717675065769219e+18,0.5469335192848838,-0.19899275294115004,0.15896690482761627
1.717675065969219e+18,0.4690381477835294,-0.2581550485929412,0.08135281556758824
1.717675066169219e+18,0.00022374563601163032,-0.10788866460150696,-0.06460960474859302
1.717675066369219e+18,-0.46586607778255806,0.12709538923746164,-0.10454311467527908
1.717675066569219e+18,-0.5151153168223529,0.11468806598742354,-0.09519429277862354
1.717675066769219e+18,-0.2998813334013954,0.14591854832593024,-0.056512095587813956
1.717675066969219e+18,0.25518165995069764,-0.058706946650906984,0.09505340145877907
1.717675067169219e+18,0.4649071641476745,-0.32980305268139526,0.04976417029332557
1.717675067369219e+18,0.39188233263764705,-0.29851524461882356,-0.017391679622752936
1.717675067569219e+18,0.07327180917115116,0.15826369948929067,0.012302532275348834
1.717675067769219e+18,-0.2852205780534884,0.3325874597534884,-0.01866689146080233
1.717675067969219e+18,-0.4773162414499999,0.20912174390976748,-0.1206244839197558
1.717675068169219e+18,-0.3814437312270589,0.17354668302792944,-0.006194887235494117
1.717675068369219e+18,0.0641372500767558,-0.17641916796089535,-0.005568813896872094
1.717675068569219e+18,0.37722675995697674,-0.2820277449720931,-0.015527330216383722
1.717675068769219e+18,0.45476397005813973,-0.19062532640465116,0.049494253426395345
1.717675068969219e+18,0.33112644040127054,-0.15607595071527414,-0.01933207371602353
1.717675069169219e+18,-0.2851211366237209,0.2267089664879535,0.044692571863883715
1.717675069369219e+18,-0.4613911412488372,0.25831766831674413,-0.04430900537687209
1.717675069569219e+18,-0.3988497853305883,0.17177876935823533,-0.04543396613728235
1.717675069769219e+18,-0.007333928427313952,0.06944680175732558,0.06375723527727907
1.717675069969219e+18,0.31408038933163956,-0.18731529182883722,0.023227067789732565
1.717675070169219e+18,0.407358018466279,-0.22177942937476752,-0.0027417887124651175
1.717675070369219e+18,0.35195333493341174,-0.17152723683541177,0.042084990015799996
1.717675070569219e+18,-0.08833743939916512,0.0012998632733255825,-0.061981465895720934
1.717675070769219e+18,-0.19191453536744188,0.34612592690581395,0.11016875244646512
1.717675070969219e+18,-0.2793960544483721,0.08375240252185698,-0.056398446048058146
1.717675071169219e+18,-0.40860924896117645,-0.003560982293952943,-0.09162971716043529
1.717675071369219e+18,-0.18080531878403486,-0.17359214362890701,-0.111077946565407
1.717675071569219e+18,-0.035419503208302325,-0.2820561571519768,-0.12482950758267443
1.717675071769219e+18,-0.07553769216930231,-0.1092950743744186,-0.0943857115227209
1.717675071969219e+18,-0.019969888329568235,-0.03927860532621176,0.020539429972247055
1.717675072169219e+18,-0.06003877360186045,0.0048514029599151165,0.02923627247874419
1.717675072369219e+18,-0.051941263596511626,-0.0281921198889686,-0.009063528611662791
1.717675072569219e+18,-0.08697816107094117,0.012005289801423529,-0.011857963400211764
1.717675072769219e+18,-0.05803570528046512,-0.03535202314610465,-0.001179111068186047
1.717675072969219e+18,-0.005487128365953489,0.00541964908661279,-0.017999201679174417
1.717675073169219e+18,0.05545728781465117,0.056774909335954644,0.012075234139476747
1.717675073369219e+18,0.04830323398517646,0.05263857743070589,0.022939769157294114
1.717675073569219e+18,-0.025972407607570934,-0.04718575268551396,0.004716444252104651
1.717675073769219e+18,0.018862226065418604,-0.011443060025375583,0.019505054559674422
1.717675073969219e+18,-0.025872964335651165,-0.026558411630282552,-0.004773269136023257
1.717675074169219e+18,0.020620279628540007,-0.004595858900097649,0.007948428678858824
1.717675074369219e+18,0.049050310704684866,0.024185983311322087,0.007117285011430232
1.717675074569219e+18,-0.025560428902093025,0.02857568614797326,-0.02673598873440698
1.717675074769219e+18,-0.09950347963546512,-0.00181128511787907,0.011748492406069767
1.717675074969219e+18,-0.06365031310658824,-0.03342867686561412,-0.06762632420450589
1.717675075169219e+18,-0.018059577935896513,-0.035039487547704654,-0.08880269154976744
1.717675075369219e+18,-0.005728633009772093,-0.03246817320711977,0.017700872368151162
1.717675075569219e+18,-0.012610764296544705,0.02442381120996471,-0.007790322498411764
1.717675075769219e+18,-0.021753178844698837,0.03772445184593023,0.046922938810116284
1.717675075969219e+18,-0.003640327870140699,0.03491163253388372,0.020684165332523253
1.717675076169219e+18,0.010097026643267441,0.005590123067851163,-0.02365325233495349
1.717675076369219e+18,0.026599567615129407,0.009949909405447058,0.0055480895618
1.717675076569219e+18,0.02487143033953488,0.0092553118290407,-0.004915330615476745
1.717675076769219e+18,0.017839382360763958,0.0003764633089383723,0.0043612903980697676
1.717675076969219e+18,0.007142145870582558,-0.0061299569778418585,-0.005369927568930232
1.717675077169219e+18,0.008259251272317648,0.0071902378681905875,0.006683579358670588
1.717675077369219e+18,-0.0026316906395860463,0.005945277027695348,-0.0001278554324302324
1.717675077569219e+18,-0.003214143095744186,0.01078957676411163,0.005568813825872093
1.717675077769219e+18,-0.006609414795320929,0.006272018792211628,0.002031480606313954
1.717675077969219e+18,-0.010138558475152942,0.0004491652872317649,-0.0034352160853764703
1.717675078169219e+18,-0.004123337216955813,0.003246107000084884,-0.0008665756336162789
1.717675078369219e+18,-0.007745907372212792,-0.0001349584440406975,-0.0015200588603837206
1.717675078569219e+18,0.004507822845281177,-0.0009162971729423529,-0.0021128734916470585
1.717675078769219e+18,0.018734370478372096,0.018432489524795346,-0.005881349264662791
1.717675078969219e+18,0.007397856673762793,0.004609898165931397,0.0019604497599302324
1.717675079169219e+18,0.011233519300976746,0.018105748240023256,0.0018183881780232565
1.717675079369219e+18,0.007138134692715294,0.01610167695169647,0.004139507225164705
1.717675079569219e+18,0.007880866075476745,0.01401437457306977,0.0027986130958837212
1.717675079769219e+18,-0.007930587392298837,0.0019249343481500003,0.001420615772976744
1.717675079969219e+18,-0.006865125584922093,-0.005675359994839535,-0.0001562677545813954
1.717675080169219e+18,-0.0022619962842105887,-0.0018649342185317651,0.00258719204677647
1.717675080369219e+18,-0.00871192610377093,-0.012693201818862788,0.003295828590848837
1.717675080569219e+18,-0.005927519264966277,-0.0038143532932476743,-0.002997499292081396
1.717675080769219e+18,-0.0031289061180406986,-0.008417148387859303,0.005597226139930232
1.717675080969219e+18,-0.005984678096640001,-0.0056882290639270585,-0.0020841268149764704
1.717675081169219e+18,-0.007447578061211625,-0.0026778606893581402,-0.00041197857897674406
1.717675081369219e+18,-0.002958432279110465,-0.005632741449893022,-0.0007103078830930233
1.717675081569219e+18,-0.010655996997647061,-0.010675760237771767,0.0008480240590823532
1.717675081769219e+18,-0.004634758866739535,-0.0020669959156593026,-0.0006676894128139533
1.717675081969219e+18,-0.00399548181100814,-0.003416580881711628,-0.000170473896
1.717675082169219e+18,0.0007919933710383721,-0.007181212592960465,0.0005398339775116282
1.717675082369219e+18,0.006893788809831765,0.0003916721233411765,-0.0033202297834705884
1.717675082569219e+18,0.013733803159127908,0.0016834296786116276,0.0018610065942674418
1.717675082769219e+18,-0.0005007669985965114,-0.002052789647616279,0.0029122622950581403
1.717675082969219e+18,0.005693117723124418,0.003530230227738372,0.0016479143144651155
1.717675083169219e+18,0.009236634859270586,-9.701971664823518e-05,-0.0004311986569764705
1.717675083369219e+18,0.009784491202416281,0.004638310573987209,0.0021877482557325586
1.717675083569219e+18,-0.00258907212699186,0.001967552830140697,-0.0018183882091511623
1.717675083769219e+18,-0.0008102941270094118,0.0008228707864400003,0.001063623393035294
1.717675083969219e+18,-0.006865125621513955,-0.00581742156288256,-0.0005398339965813953
1.717675084169219e+18,-0.00722027950633837,-0.00043328780012906974,-0.002628139183744186
1.717675084369219e+18,-0.0036687401781244186,-0.0044394242049174415,-0.001761563560953488
1.717675084569219e+18,-0.008040058457827057,7.545979683411766e-05,-0.001336715894952941
1.717675084769219e+18,-0.008768750641899999,0.0011009772144569769,-0.002372428339
1.717675084969219e+18,-0.001736702737518605,-0.0005185247708325582,-0.0013069665184651162
1.717675085169219e+18,-0.004322223426669768,0.002010171375254651,-0.0015058527241511629
1.717675085369219e+18,0.0029411342996047054,0.0008372441337988237,-0.004010147636905882
1.717675085569219e+18,0.00989814048555814,0.005504886120668604,0.0004972155303255815
1.717675085769219e+18,0.008520143179558138,0.006897089622227908,-0.0027844069234186043
1.717675085969219e+18,0.008662204786534882,0.0026494483997081394,0.0019036251429534882
1.717675086169219e+18,0.01681135833717647,0.012220889077823528,-0.004901291547588235
1.717675086369219e+18,0.0073268258794965116,0.006840264988665116,0.0024008406139534887
1.717675086569219e+18,-0.0018077334675755813,-0.010391804294680231,-0.007912829895593023
1.717675086769219e+18,-0.007493873386275295,0.0004060454324705884,-0.0027596714945882354
1.717675086969219e+18,-0.009067080010627906,-0.0014703372162709306,-0.00590976163177907
1.717675087169219e+18,-0.009237553888780232,-0.005249175184565117,-0.0028128192005930234
1.717675087369219e+18,-0.0057854576157953495,0.0019249343660767435,-0.0013637911625232558
1.717675087569219e+18,-0.002650075143590589,-0.0019080540449470586,-0.0008192774798352942
1.717675087769219e+18,-0.001125837932760465,-0.015434990004805813,-0.0020172743850697676
1.717675087969219e+18,0.009415131121988371,-0.004609898188261627,-0.001591089682465116
1.717675088169219e+18,0.012682547329941864,-0.002052789725274418,0.007728149762255816
1.717675088369219e+18,0.006620696356174119,0.0066727994199176485,0.003679561964211765
1.717675088569219e+18,0.01843604094712442,0.006186781640405813,-0.0009660187061395348
1.717675088769219e+18,0.016276705144209303,0.005675360023170931,0.0029690869850232567
1.717675088969219e+18,0.02275471283262791,-0.010633308817218605,0.008949879364499999
1.717675089169219e+18,0.006706936085211766,0.001742761273002353,-0.001365462421894117
1.717675089369219e+18,-0.00172249651615814,-0.003203488501551163,-0.0013211726923139534
1.717675089569219e+18,-0.007007187219977906,-0.004268950347425581,-0.0008381633114883723
1.717675089769219e+18,-0.0035268457806388234,0.004502432763024707,-0.0015810617944352937
1.717675089969219e+18,-0.01075761285477907,-0.002152232857293024,-0.0008665755969534883
1.717675090169219e+18,-0.03844541378244186,-0.006371461605694184,0.001903625173395349
1.717675090369219e+18,-0.026213912075906988,-2.130919198720942e-05,-0.00441811505983721
1.717675090569219e+18,-0.016247206290258828,0.001225322913457647,-0.011369271589141179
1.717675090769219e+18,-0.023159588253139532,0.001299863532897674,-0.0009518125714302325
1.717675090969219e+18,-0.0162127774031407,0.0004759064229313954,-0.011663255418616274
1.717675091169219e+18,-0.07562292891024418,0.03276650251409302,-0.04553073523119768
1.717675091369219e+18,-0.01814448048894118,0.0233026948542247,0.027409861965741175
1.717675091569219e+18,0.0005789010580686048,-0.007479541830753487,-0.0010938741355581395
1.717675091769219e+18,0.010594242145181397,-0.003217694639689535,0.001562677367244186
1.717675091969219e+18,0.019657770681953488,0.0020527899237488376,-0.003864074902197676
1.717675092169219e+18,0.010472737665004705,-0.025753340497494115,-0.023845286458082354
1.717675092369219e+18,0.023578669952906976,-0.00891436394303721,0.0126150681354186
1.717675092569219e+18,0.0430126939135814,-0.009340548617646511,-0.01595351492066279
1.717675092769219e+18,0.00026770257878588205,-0.012731140661831761,-0.000862397299741176
1.717675092969219e+18,0.03632159363867443,0.012025512431568606,0.014774404135802327
1.717675093169219e+18,0.0028518861627046506,0.008076200845383722,0.006932604892395349
1.717675093369219e+18,-0.01216402244795349,-0.010391804151151159,-0.0019320374501279067
1.717675093569219e+18,0.01409480633582353,0.02484063662162471,0.004930038062400001
1.717675093769219e+18,0.0034059263476476733,0.012593758740027909,0.013950446675872096
1.717675093969219e+18,-0.0011684564480930232,-0.0060305138076534905,-0.00018468004553488378
1.717675094169219e+18,0.005252726873859303,-0.00020598928872441854,0.00738720203117442
1.717675094369219e+18,-0.0031100202860470587,-0.003532235702257648,0.0023715926310117646
1.717675094569219e+18,-0.0012465903216279067,-0.002344016006669767,0.0018396974123220922
1.717675094769219e+18,0.01180531695234884,0.0040807187750744175,0.0023688768499581384
1.717675094969219e+18,0.011771723615188237,-0.007619639876061177,0.0017553379820211758
1.717675095169219e+18,0.015527330435476747,0.002532247522718605,0.0002805716175069766
1.717675095369219e+18,0.018382767831848838,0.004066512628376743,-0.0003444993459488373
1.717675095569219e+18,-0.0011933171763372093,0.0006002101235697676,0.0027524430157476747
1.717675095769219e+18,-0.006166140993811764,-0.004759355288275296,-0.0004150287078270586
1.717675095969219e+18,0.0033242408535813944,0.008257329253448836,0.014486729268805815
1.717675096169219e+18,-0.01471757930955814,-0.006985878074877907,-0.021795797402167444
1.717675096369219e+18,-0.013595292907151165,-0.00810816436200349,-0.00781693829289884
1.717675096569219e+18,-0.006654832788682352,0.003419046088243529,0.002790214768523529
1.717675096769219e+18,-0.004347084299976744,0.004592140432174418,0.006616517991184885
1.717675096969219e+18,-0.0059807924120697685,-0.0021984029465825575,-0.0007990963721220932
1.717675097169219e+18,0.0008665756104883722,0.0006712409377209303,-0.001878764335525582
1.717675097369219e+18,0.0057205690003764706,0.004712642084935294,0.004285036845538824
1.717675097569219e+18,0.004886918270686046,0.004393254186782557,-0.0001456130933360466
1.717675097769219e+18,0.0038924872288837206,0.003285173958169767,-0.005004118994670929
1.717675097969219e+18,0.010564367406764705,0.004956988006894116,0.0012522727853517648
1.717675098169219e+18,0.006747924906895349,0.0064673532812686025,-0.0014241672687162798
1.717675098369219e+18,0.0016337081473837207,-0.0005931071314755815,-0.0006996532340848835
1.717675098569219e+18,-0.001903625141593023,-0.0033775140491883733,-0.00020243769664651156
1.717675098769219e+18,-0.004168253819329412,-0.007087828156834116,-0.00501448113454
1.717675098969219e+18,-0.008850436275686045,-0.0068864349469988356,-0.0005149732148674418
1.717675099169219e+18,-0.005739287694906976,-0.001431270362429069,-0.0012110749308674423
1.717675099369219e+18,-0.005923967763837209,-0.0020563413143953493,-0.002248124456383721
1.717675099569219e+18,-0.008077788425223529,0.0007168677555247059,-0.002283556264317647
1.717675099769219e+18,-0.004844299777558139,-0.0006357255488732559,-0.002148681339906977
1.717675099969219e+18,0.0038072503007674403,-0.001260796494127907,0.0019995167073476737
1.717675100169219e+18,0.005355721445104653,0.0038534202512255813,-0.00010299466028488384
1.717675100369219e+18,0.006654832803741175,0.005819385265314118,-0.0002138026763705884
1.717675100569219e+18,0.011663255534802325,0.006041168448495346,0.005764148522988372
1.717675100769219e+18,0.007713943632790697,0.0029016076852569775,-0.00018823158926860447
1.717675100969219e+18,0.007704082915858823,-0.002474002389574117,0.0004904885325541176
1.717675101169219e+18,0.0013495849819534884,-0.0014312704260453486,-0.0007422717388348835
1.717675101369219e+18,-0.004716444345151163,-0.001573331946438372,-0.0035692970837162786
1.717675101569219e+18,-0.0063075340139534895,-0.004187265019830234,0.001857455115282558
1.717675101769219e+18,-0.007071658111576471,-0.0038394648246270597,-0.010160118571870588
1.717675101969219e+18,-0.004929536746360466,0.0026458968541418606,-0.0016656719822895356
1.717675102169219e+18,-0.010299464356930231,0.0032141431700593026,-0.00017402541886162801
1.717675102369219e+18,-0.005696669262813953,0.004691583544036044,-0.0009979825942953494
1.717675102569219e+18,-0.0016241816859882351,-0.002790214752769411,-0.003390299542490587
1.717675102769219e+18,0.007401408131883721,0.0012963117881139535,-0.0032567616708162788
1.717675102969219e+18,0.006605863351604648,0.010160954214534886,0.004457182072913955
1.717675103169219e+18,0.01464654850116279,0.012888536558825586,0.007000084344162792
1.717675103369219e+18,0.00655421973362353,0.001076199980636471,-0.0034765392159223515
1.717675103569219e+18,0.004545970503127908,0.005288242119023257,-0.008030030689713953
1.717675103769219e+18,0.002969086980953487,0.0024896291163534878,0.0009056425762837204
1.717675103969219e+18,-0.006697952704576471,-0.00751902682716706,-0.0027147549751600003
1.717675104169219e+18,-0.008367426850430232,-0.00805133998621512,-0.0010690133691418603
1.717675104369219e+18,-0.007799180559930231,-0.004428769699580232,-0.004052306486131393
1.717675104569219e+18,-0.008026479120255814,-0.003718461814937211,-0.0018219397198151167
1.717675104769219e+18,-0.014703874617905881,-0.0003180090570258823,-0.000601881465782353
1.717675104969219e+18,-0.008466870056209304,-0.0002663654571686046,-0.004194368106023253
1.717675105169219e+18,-0.003963518010697673,-0.0003658085566395349,-0.0025748660689953492
1.717675105369219e+18,-0.0022019544512209307,-0.0005220763451372093,-0.0063537039815627925
1.717675105569219e+18,0.009414504198811765,0.0021829432396576476,-0.003174700203109411
1.717675105769219e+18,0.01707580136034884,0.0008843333208872097,0.0011897657578802327
1.717675105969219e+18,0.005682463094337209,-0.0024541138198034894,-0.007447578180494186
1.717675106169219e+18,0.010435007836941172,-0.004170050511927059,-0.002484782412775294
1.717675106369219e+18,0.007827592884744185,0.0006002101316511627,-0.004876263618699999
1.717675106569219e+18,-0.002045686730418604,-0.004300914254005814,-0.0029584323441918608
1.717675106769219e+18,-0.0026423453494186047,-0.0020563413574720925,0.004514006620939534
1.717675106969219e+18,-0.00987444938064706,-0.0026752283823658824,-0.004755761918830588
1.717675107169219e+18,-0.004389702766220931,-0.003405926375516279,0.0019995166539686043
1.717675107369219e+18,-0.0111944523327907,0.005884900746522092,0.001431270415255814
1.717675107569219e+18,-0.006591657175372092,-0.0023262584145313948,-0.0033135862532046507
1.717675107769219e+18,-0.0016960481058705887,-0.0033220264183752945,-0.00047252187439058847
1.717675107969219e+18,-0.0048727121091511625,0.00021664388931976763,-0.0012821057110418606
1.717675108169219e+18,-0.002983293134744186,-0.004712892831175581,-0.0007422717137953489
1.717675108369219e+18,0.0056540507886395355,0.0038108017936476736,-0.00051497320812907
1.717675108569219e+18,0.006741072541635293,0.004410803016715293,0.000677341222735294
1.717675108769219e+18,0.00474485671044186,0.0011826626250279067,-0.00018823161307325595
1.717675108969219e+18,0.007131491106604649,0.006524177905686046,0.0015449196969186047
1.717675109169219e+18,0.008250267795682355,0.00666740935721294,0.0006054747938870586
1.717675109369219e+18,-0.002727582311674419,0.003327792426158139,0.0011187349046395349
1.717675109569219e+18,-0.006293327845325579,-0.0019853105342255806,-0.001892970526334884
1.717675109769219e+18,-0.004332878122023257,-0.004840748268901163,-8.878849727093038e-05
1.717675109969219e+18,-0.006410486859341177,-0.0029626942515894117,0.0021577900629117645
1.717675110169219e+18,-0.008552106862174415,-0.0013460334211941863,-0.0018361457377081393
1.717675110369219e+18,-0.00698942956938372,0.000799096344496512,-0.0003018808249604652
1.717675110569219e+18,-0.0063075340191627895,0.004180161903903487,-0.0008417148272348835
1.717675110769219e+18,-0.004240120285964706,-0.0018415776423811765,-0.002829741244929413
1.717675110969219e+18,0.0043044658228953495,-0.0013602396187418605,-0.002148681355398838
1.717675111169219e+18,0.006392770957197673,0.005472922267162788,-0.0007848901834302326
1.717675111369219e+18,0.005923967780069769,0.0035408847915697666,0.0011329411002174417
1.717675111569219e+18,0.010492500881458824,0.007788525878094116,0.0012091529425423528
1.717675111769219e+18,0.00752926359554651,0.003654534043198836,-0.001722496641813954
1.717675111969219e+18,0.0025144899301976745,0.0006144162772720931,-0.0012536934024767444
1.717675112169219e+18,-0.004541959335576471,-0.003666985348535295,-0.003002220705845883
1.717675112369219e+18,-0.002798613082418605,-0.002837680011547674,0.0003658086074790697
1.717675112569219e+18,-0.00620809091276744,-0.004343532827243024,-0.004137543479406975
1.717675112769219e+18,-0.009248208601151164,-0.0043293266593941865,-0.002361773688609302
1.717675112969219e+18,-0.0033920962117999997,0.000831854060598824,-0.0013492925045223527
1.717675113169219e+18,-0.002770200775244186,-0.001516507353687209,-0.0018077335438686046
1.717675113369219e+18,-0.005213659896999999,-0.0016159504515302326,-0.004478491219009303
1.717675113569219e+18,-0.0018183881658488373,-0.0006499317208034887,-0.002162887505074418
1.717675113769219e+18,0.00664045952995294,0.005086347630567058,0.0005623549325788232
1.717675113969219e+18,0.005398339919581396,0.0021060628573895345,-0.004762614375245348
1.717675114169219e+18,0.00450335202872093,0.0014809919353872098,-0.0009979825611709306
1.717675114369219e+18,0.006449595564616281,0.003356204743134883,-0.004038100244433721
1.717675114569219e+18,0.008580853448129411,0.0065667962489623505,-0.00035753556575294116
1.717675114769219e+18,-0.0010370494983837208,-0.0019000735958999997,-0.00045814860249651163
1.717675114969219e+18,-0.005298896842848838,-0.004187264988697675,0.0006925501667081396
1.717675115169219e+18,-0.003018390707870588,0.0032321933082,0.00010240963410470584
1.717675115369219e+18,-0.005568813829162791,-0.004030997299247674,-0.0020634443743069763
1.717675115569219e+18,-0.013609499063593027,-0.008591173802097675,9.589155507209298e-05
1.717675115769219e+18,-0.01723206910573256,0.0012394872468593022,-0.002745339933268605
1.717675115969219e+18,-0.008307760997941175,-0.0014822453965376468,-0.0006881212206129416
1.717675116169219e+18,-0.006932604957802323,-0.0019995166899534882,0.0019995167691593016
1.717675116369219e+18,-0.0012075234107790699,-0.004599243567663954,-0.0029158138731732544
1.717675116569219e+18,0.009006703968372092,-0.00499701600440465,0.000791993279106977
1.717675116769219e+18,0.00859522683662353,-0.0003467555801470588,-0.0030165940030094105
1.717675116969219e+18,0.008125922225988371,0.007135042682787209,0.0020563413701069765
1.717675117169219e+18,0.0010228433422209303,0.0033562047140639536,-0.00040132394415581406
1.717675117369219e+18,0.007589096533788236,0.005776265456647057,0.0010510467444611767
1.717675117569219e+18,-2.8412322081395346e-05,-0.0024114952639651163,-0.005487128363296511
1.717675117769219e+18,-0.006094441624860464,-0.003278070843500001,0.0007493748739581391
1.717675117969219e+18,-0.005938173930895351,-0.006843816488770933,-0.001069013346816279
1.717675118169219e+18,-0.006137394436717647,-0.004471889478649412,-0.0021829432588576472
1.717675118369219e+18,-0.007017841909058136,-0.0013176211599918606,0.0015449196534697673
1.717675118569219e+18,-0.006605863363755814,0.0008985394467430234,-0.0030436692874883722
1.717675118769219e+18,-0.0023156037016162792,0.0010406010281034884,-0.000841714815460465
1.717675118969219e+18,-0.0032052434665176474,0.006006238088354119,0.00021739598935529414
1.717675119169219e+18,-0.002642345345395349,-0.0008346117873081393,-0.0026032784005825585
1.717675119369219e+18,0.0012643480400581397,0.002787958421854652,-0.00011720079563837216
1.717675119569219e+18,0.005838730838116276,0.0040381003028500005,-0.007064011955512792
1.717675119769219e+18,0.006151767683011763,0.007529806872809412,0.0038538381086376462
1.717675119969219e+18,0.01353846823590698,0.010473489830313956,-0.0019640012613941858
1.717675120169219e+18,0.010654618226860466,0.006012756152813954,0.0003942208916406978
1.717675120369219e+18,0.014574514920411761,0.010591317248483528,-0.0038789913250223533
1.717675120569219e+18,0.008466870076616279,0.008768750900279072,0.0023262583823651165
1.717675120769219e+18,0.001591089664906977,-0.0027382369592895348,-0.004577934276994186
1.717675120969219e+18,-0.0065632448666511625,-0.004954397559065117,-0.0003729116078220932
1.717675121169219e+18,-0.008106535015764705,-0.009056968648317646,-0.0010905732743035294
1.717675121369219e+18,-0.005355721429790698,-0.003306483166918605,-0.0015378165631500002
1.717675121569219e+18,-0.0028554377076627914,-0.0022268152164662794,-0.004236986503923254
1.717675121769219e+18,-0.005597226168813954,-0.0007777871732267442,-0.0007280655682988374
1.717675121969219e+18,-0.004886918234305881,0.00047252186002823515,-0.0023410493939835303
1.717675122169219e+18,-0.004205022692255814,0.0011400441263976747,0.0019426920672837202
1.717675122369219e+18,-0.002301397558755814,3.1963807659302406e-05,-0.001353136479697675
1.717675122569219e+18,0.002798613059465116,0.0019497951163023259,-0.0017651150749313953
1.717675122769219e+18,0.0067698190740470565,0.008880895754341174,0.0038394648894541183
1.717675122969219e+18,0.0061086478270232555,0.005515540640046511,-0.004876263633845348
1.717675123169219e+18,0.0038214563867906967,0.005416097568979069,0.00013851004160348842
1.717675123369219e+18,0.006985418446329411,0.00895276229743647,-0.005287573669979999
1.717675123569219e+18,0.005796112309895348,0.0009979825986093022,0.0008488179517476741
1.717675123769219e+18,-0.0035231271040813954,-0.00496860371016279,-0.00027346852452093045
1.717675123969219e+18,-0.005199453743348839,-0.0067443735045860445,-0.00048656088536860463
1.717675124169219e+18,-0.0022709796849176476,-0.003638238730975295,-0.0008893472396529411
1.717675124369219e+18,-0.004119785755802326,-0.005934622425659302,-0.0017082904395511632
1.717675124569219e+18,-0.007600294423406978,-0.004371945065701164,-7.458235309302331e-05
1.717675124769219e+18,-0.004460733520651162,3.196385236744182e-05,-0.0023759798814127907
1.717675124969219e+18,-0.005663075902141176,-0.0008641939932270585,-0.003088460414147059
1.717675125169219e+18,-0.0018894189919883718,-0.004556625149479069,0.0010619102888895348
1.717675125369219e+18,-0.0027417884490465116,-0.0033348955222383733,-0.002802164582794187
1.717675125569219e+18,0.007316004068341177,-0.004558129301462353,0.000921687160588235
1.717675125769219e+18,0.004119785723011628,0.001935588960089535,-0.0013247241799918606
1.717675125969219e+18,0.008637343812360464,0.0031715246379453487,0.0015733319898046509
1.717675126169219e+18,0.007770768320674418,0.0054445098950372086,-0.0012963118713825586
1.717675126369219e+18,0.00616614098035294,0.004971361232948235,-0.0015648918383435295
1.717675126569219e+18,0.004872712069674419,0.0020492382308406982,0.001189765750498837
1.717675126769219e+18,0.0014916465666976744,0.0012536933984453496,-0.0017082904449523264
1.717675126969219e+18,-0.002329809886360465,-0.0027382368645116274,-0.0016940842616662802
1.717675127169219e+18,-0.004283240144505883,-0.0027758414899035286,-0.0007024944402999999
1.717675127369219e+18,-0.004844299811337209,-0.002610381434774418,-0.00260327838705
1.717675127569219e+18,-0.0050858044510116275,-0.00455662508714535,-0.0034840601384709285
1.717675127769219e+18,-0.00677633721822093,-0.002851886210815116,-0.000955364068617442
1.717675127969219e+18,-0.007833442540882352,-0.001007926872195294,-0.002412915876889412
1.717675128169219e+18,-0.017672460195186045,0.005970137516419768,-0.01912503970345465
1.717675128369219e+18,0.08106033590313955,0.032791363446374414,0.027428538986586048
1.717675128569219e+18,0.0985432685722353,-0.025686864133256472,-0.005043227693696471
1.717675128769219e+18,0.036907597552325574,0.015900241945737206,0.02947422543614884
1.717675128969219e+18,0.009958516501034886,-0.048510477028787205,-0.01624118976851163
1.717675129169219e+18,-0.018325943485441858,-0.07859911870980234,-0.056345173180000006
1.717675129369219e+18,0.014847607449588232,-0.002402135895197648,0.04815231463176706
1.717675129569219e+18,-0.04440844860434883,0.0014099611714186052,0.08517656990720932
1.717675129769219e+18,-0.1095294752825,-0.025198172148848837,-0.026966838863267444
1.717675129969219e+18,0.02603988691015116,0.0488585278317442,-0.02013367683216744
1.717675130169219e+18,0.020453189993270587,0.02676126730520117,-0.012445471747968234
1.717675130369219e+18,0.009447094912360468,0.09018424062244186,0.03078119226014883
1.717675130569219e+18,0.02781565675686046,-0.0005362821692255808,-0.008228917070406978
1.717675130769219e+18,0.026735988855709304,-0.028636062220174428,0.010920983557638372
1.717675130969219e+18,0.0654703312893294,0.010878783167791763,-0.04865178623717646
1.717675131169219e+18,0.024420384950383713,-0.007497299601544187,-0.008683513903865117
1.717675131369219e+18,0.032361627143720935,0.014621688036817446,-0.03573203808533837
1.717675131569219e+18,0.03833356159870588,0.016556232255165882,-0.009542067161223532
1.717675131769219e+18,0.04908227475325581,0.02435290572602907,0.01785358874814186
1.717675131969219e+18,0.0030827363222674406,0.03895683599639534,0.02749957001430232
1.717675132169219e+18,-0.028838499981383707,-0.01586472657992442,0.01627670501813721
1.717675132369219e+18,0.002098500268364706,0.040214665766365884,-0.020379527124552942
1.717675132569219e+18,0.05801794784455813,0.0537880641857221,0.03220180808085816
1.717675132769219e+18,0.6193032394662791,-0.02829511468691861,-0.02601502614413023
1.717675132969219e+18,0.7825035789116281,0.2275009600976279,0.29323995426740695
1.717675133169219e+18,0.19271705663550592,-0.33120549544329414,0.010896749564411765
1.717675133369219e+18,0.11262641802212794,-0.18253136770539538,0.002823473725522098
1.717675133569219e+18,-0.2657972097767441,0.28138491735697674,0.07477766323018606
1.717675133769219e+18,-0.5994955111988235,0.3710734043094118,-0.11663744369067294
1.717675133969219e+18,-0.5948118227837209,0.18358972742825583,-0.10285613385940816
1.717675134169219e+18,0.04212125790422093,0.20380508925090698,0.05255923200274418
1.717675134369219e+18,0.44169785394534883,-0.27274046825558135,0.04765810730283488
1.717675134569219e+18,0.4729243239929411,-0.4287138858199999,0.007303427728117649
1.717675134769219e+18,0.31385664030473254,-0.17285697493143024,-0.028344836280769763
1.717675134969219e+18,-0.3424678431058139,0.2945398177163954,-0.05141563602627906
1.717675135169219e+18,-0.6046708950488372,0.07478476567269768,-0.0815611015067686
1.717675135369219e+18,-0.46033332561094126,0.07006798726997882,-0.09596865398336472
1.717675135569219e+18,0.17644047837073257,0.005004119166318605,0.03112214000645117
1.717675135769219e+18,0.49835200850581396,-0.19653863819519768,0.12054990251278838
1.717675135969219e+18,0.507202446466279,-0.34229381798372094,-0.03415515438095931
1.717675136169219e+18,0.02557008093637647,-0.031019354318905883,-0.09714726328615528
1.717675136369219e+18,-0.04459312858033721,0.18219752345372092,-0.03705321056182558
1.717675136569219e+18,-0.5216785222337209,0.20550982722906977,-0.02730778640203487
1.717675136769219e+18,-0.5083976016305882,0.1287541257304706,-0.05013223503501174
1.717675136969219e+18,0.1272303477511744,-0.14346443368173256,0.0024399079618837223
1.717675137169219e+18,0.6560403583337209,0.005543952968534883,0.182616605483721
1.717675137369219e+18,0.5767273819744186,-0.27586582216674416,0.10617327086702208
1.717675137569219e+18,0.15001401561119998,-0.15415532111401178,-0.05185702931645882
1.717675137769219e+18,-0.2585236555090814,0.25069961593023254,0.012682547648999998
1.717675137969219e+18,-0.29243375559187207,0.36000179377906977,-0.07643267952781393
1.717675138169219e+18,-0.6311369649186047,0.24525865773720928,-0.08808172913979068
1.717675138369219e+18,-0.13316852187063533,0.042658124667224705,-0.009168361775119998
1.717675138569219e+18,0.4143367950337209,-0.07646819476664769,0.12081981909290695
1.717675138769219e+18,0.4029292502325581,-0.20284617328488377,0.10280641189872095
1.717675138969219e+18,0.320279997762353,-0.20385815209895292,0.036840536337905884
1.717675139169219e+18,-0.4813614449992674,-0.11444125468832324,-0.22171905368767436
1.717675139369219e+18,-0.23508349863233727,-0.33395480195755817,-0.0506769155663849
1.717675139569219e+18,0.2613648875679883,0.04269305404627907,0.2907680832949535
1.717675139769219e+18,0.09789647051023527,0.14355861230880468,0.43199099452470596
1.717675139969219e+18,0.018794746603069772,0.11689181708220929,0.07747683187635929
1.717675140169219e+18,-0.021394473729674415,-0.028877567082020935,0.03876505288939536
1.717675140369219e+18,-0.00632174017033721,0.013684081517988373,0.0846793540272093
1.717675140569219e+18,0.019576419319600004,-0.00935880791841059,0.18406613477999997
1.717675140769219e+18,0.010498350644069766,-0.12032260330186044,0.03402019622405814
1.717675140969219e+18,0.08928570103046511,-0.021746076156697675,0.012242156254093025
1.717675141169219e+18,0.07191157038213954,0.06611900914111626,0.05049933880315117
1.717675141369219e+18,-0.016155576846376474,0.041321408914967044,0.06856238565442824
1.717675141569219e+18,-0.024235704773197673,-0.06910940547837209,-0.07988477618593023
1.717675141769219e+18,-0.018013407903325583,-0.07945148850244187,-0.07296637735627907
1.717675141969219e+18,-0.02112873465354118,-0.02193543552061529,-0.07567356958611764
1.717675142169219e+18,-0.008949879323848837,-0.06364003488210467,-0.039624525555725584
1.717675142369219e+18,-0.011776904846523257,-0.026647200267267447,-0.01739188860089884
1.717675142569219e+18,-0.013794179094209304,-0.05157900679627906,-0.02075874793383372
1.717675142769219e+18,-0.00248657898177647,-0.020440613461074116,-0.01297728335680588
1.717675142969219e+18,-0.0023298098657325577,-0.010892571395867443,0.004755511309727908
1.717675143169219e+18,0.004133991903802326,-0.002510938332160465,0.009145213964160466
1.717675143369219e+18,0.0001278554216395349,-0.018336598036903486,-0.011013323770701165
1.717675143569219e+18,-0.002860284551141177,-0.044343393110235295,-0.02769553128482352
1.717675143769219e+18,-0.0013495849805348836,-0.02329454668627907,-0.006566796354434882
1.717675143969219e+18,-0.009390270266686046,-0.02143354047119302,-0.009308584954601164
1.717675144169219e+18,-0.0056114323030813954,0.0022765368415372097,-0.012703856552838375
1.717675144369219e+18,-0.012274788595152946,-0.0009935536833247062,0.021489863581692942
1.717675144569219e+18,0.09691440781372093,0.21518422146758143,0.09897074750548836
1.717675144769219e+18,0.5160528835511627,0.2165480119848837,-1.2169030211474652
1.717675144969219e+18,1.9154994649164705,2.913018316076471,-0.9241863052694118
1.717675145169219e+18,0.48430211785476746,6.6791422367093025,4.6386052675
1.717675145369219e+18,0.019078870819744187,6.650843570395347,7.883618399209302
1.717675145569219e+18,0.4642288176656279,4.063206148755815,4.053822996941861
1.717675145769219e+18,1.7455209585611766,0.9709138742978826,1.1361815395724708
1.717675145969219e+18,0.0483293480874535,-0.16626531732259303,-0.3426134576059302
1.717675146169219e+18,0.2919081332146046,0.37544389281081625,0.2460755119321163
1.717675146369219e+18,0.5472211873476743,0.07880511317557098,1.3277607707740928
1.717675146569219e+18,-0.024535203768352942,-0.07710011772517647,0.30437056380105887
1.717675146769219e+18,-0.38203199227627904,0.13591386088981394,-0.05858974568681395
1.717675146969219e+18,0.4257017209465119,-0.3559743478416047,-0.11282885548018604
1.717675147169219e+18,0.3006173376485882,0.007946631225188242,-0.07160592928320236
1.717675147369219e+18,0.12184621460943022,0.8001511748441862,0.15808257034816048
1.717675147569219e+18,-0.01318331430387209,0.5703807805860465,0.22168353823139536
1.717675147769219e+18,-0.13403555662793548,0.6413538227564517,0.30834384911290325
1.717675147969219e+18,,,
