Timestamps,Acc_X,Acc_Y,Acc_Z
1.7176715598674898e+18,3.497200035099999,3.64209871675,8.484528831499999
1.7176715600674898e+18,3.13733338175,3.624442932099999,8.228478790299999
1.7176715602674898e+18,0.6714063033715,3.9421497573499997,9.06017177595
1.7176715604674898e+18,-1.457032585165,5.656602035500001,9.179615890200001
1.7176715606674898e+18,-4.76174040985,7.1688173675,4.836689552299999
1.7176715608674898e+18,-3.5782115708000006,8.034242706399999,1.815873870865
1.7176715610674898e+18,-2.5714052353000003,8.1112126465,-1.3574147415633502
1.7176715612674898e+18,2.829842811635,7.67326835625,-1.6099470977086
1.7176715614674898e+18,8.876705795,10.61063257575,-3.3838781891000003
1.7176715616674898e+18,6.8090255587,8.72144116975,-3.6797753676999996
1.7176715618674898e+18,1.1361523589650002,7.656106544550001,-3.4814303283499997
1.7176715620674898e+18,-2.698341270395,6.774821685800001,-5.5680836104
1.7176715622674898e+18,-2.3283032684499996,6.568969757050001,-6.13938558215
1.7176715624674898e+18,0.11552975457999999,8.6060536192,-2.08547074131
1.7176715626674898e+18,1.5997682648949998,10.575029114799998,-0.29696745307249994
1.7176715628674898e+18,0.46710365293,9.55641233795,-0.5178705825966999
1.7176715630674898e+18,2.069349265975,10.09802355175,0.4917798385615
1.7176715632674898e+18,0.7586374054150001,9.3747575911,0.3550466766274999
1.7176715634674898e+18,2.4528517685,9.767189025849998,0.9045390015010002
1.7176715636674898e+18,1.887155639665,9.6065281218,1.1105256499885
1.7176715638674898e+18,0.478494964595,9.81087567955,1.1597732392000002
1.7176715640674898e+18,-0.49648006440000003,9.4925925522,1.347557739255
1.7176715642674898e+18,-0.7793917465725,9.375723084,2.55804551698
1.7176715644674898e+18,1.4218033447365,7.9527671355999985,4.801467796150002
1.7176715646674898e+18,2.2682406692749995,5.586450416499999,7.265905471849999
1.7176715648674898e+18,-0.9659188613624998,4.401896209649999,8.373856475850001
1.7176715650674898e+18,-1.5657083784380952,1.3415174430357144,10.325877228
1.7176715652674898e+18,-4.246526802050001,4.1256830978500005,7.56734113295
1.7176715654674898e+18,-2.36710258491,0.493209365875,7.41314678185
1.7176715656674898e+18,0.3197650451464999,0.43044488529500013,10.2164946894
1.7176715658674898e+18,-1.2661121063835001,-0.68592610931,10.7790997472
1.7176715660674898e+18,-2.25560694125,-2.0185898208,11.6998874583
1.7176715662674898e+18,-1.0682685241349998,-1.86878883366,12.219681543
1.7176715664674898e+18,-0.5718932418805001,0.023366409347999984,8.5571952217
1.7176715666674898e+18,-0.5047803039865,1.9269653549750003,5.3757261198499995
1.7176715668674898e+18,-0.8757613448700001,-0.70257897947,12.794486228500002
1.7176715670674898e+18,-1.137963592522,-1.065821113505,12.566966859
1.7176715672674898e+18,0.12764705659150002,0.7018604736735,7.4627087172
1.7176715674674898e+18,0.116480277955,1.0143656157749998,6.333891106049999
1.7176715676674898e+18,0.19026184842605,-1.196693962105,13.5841241695
1.7176715678674898e+18,0.236351005542,-1.3134586487300002,11.974611168500001
1.7176715680674898e+18,0.2332150268605,0.9485774230727,6.454510276650001
1.7176715682674898e+18,-0.23002665712249998,1.167063079856,7.2579046095
1.7176715684674898e+18,-0.1069525909382,-1.745789611775,13.195008339000001
1.7176715686674898e+18,0.28248506926850003,-1.9649862899500001,12.100746367499998
1.7176715688674898e+18,-0.6260431366175001,0.5572611694395,6.746193717899999
1.7176715690674898e+18,-0.03745211790949998,1.1701242142,6.78093646985
1.7176715692674898e+18,-0.47447582242150005,-0.9164018325700001,12.52128186
1.7176715694674898e+18,-1.50952841942,-1.3239368592000003,11.9527566145
1.7176715696674898e+18,-0.7823106765900002,-0.18269508359199996,9.372706855799999
1.7176715698674898e+18,1.922549537705,1.1213705978749997,8.42461592095
1.7176715700674898e+18,1.9279158783150003,2.1061801757499996,7.26399694065
1.7176715702674898e+18,6.0624231259500005,2.92511219795,4.91660836025
1.7176715704674898e+18,11.136968056750003,2.6767561569550002,3.672754966785
1.7176715706674898e+18,9.02083358026,2.4863221664950004,-0.194071426497
1.7176715708674898e+18,8.3466505509,3.0681622238,-3.5602339553
1.7176715710674898e+18,4.8457756575849995,0.5411097563985,-6.688361480750001
1.7176715712674898e+18,3.4712440110605,-2.990952781665,-11.595008056000001
1.7176715714674898e+18,1.36079022216,-1.3511802062999998,-9.667705902049999
1.7176715716674898e+18,0.95228970332,-0.7418423309159999,-9.819078620749998
1.7176715718674898e+18,0.383674644474,-0.62450882724835,-9.736210945
1.7176715720674898e+18,0.7005806350499999,-0.490140747075,-9.7510750351
1.7176715722674898e+18,0.41585023504550006,-0.47023214723500006,-9.75770624575
1.7176715724674898e+18,0.28110044861250005,-0.6885456619265,-9.753941574200002
1.7176715726674898e+18,0.3076552276865,-0.6573879547000001,-9.75081307935
1.7176715728674898e+18,0.4949831771996499,-0.68558930967,-9.77901443475
1.7176715730674898e+18,-0.5109399948169999,-1.0329943770449996,-9.700068603950001
1.7176715732674898e+18,-0.07083270263674998,-0.750980827396,-9.7368396381
1.7176715734674898e+18,0.20665276333815,-0.45239673615699993,-10.178383941149999
1.7176715736674898e+18,0.09999206542725,0.035551071164000005,-9.331632271299998
1.7176715738674898e+18,0.03204835509604999,0.006242019664999998,-10.0892218553
1.7176715740674898e+18,-0.29106971741230003,0.5555023270199999,-9.615719008500001
1.7176715742674898e+18,-0.5003345489175,1.248448837311,-9.1914787211
1.7176715744674898e+18,0.06693331145949998,1.4923666076970001,-10.281586830200002
1.7176715746674898e+18,0.0855171661384,2.2840253449500003,-9.051452407849998
1.7176715748674898e+18,-0.04428540805249998,1.2192969589450002,-10.114002823249999
1.7176715750674898e+18,0.11660002897895001,1.5169529800499997,-9.42992536945
1.7176715752674898e+18,0.1261875915508,1.63038709255,-9.6347369615
1.7176715754674898e+18,0.060713745113999996,1.7449289015999998,-9.611595085150002
1.7176715756674898e+18,0.15458568028809525,1.7870409719999998,-9.612852826904764
1.7176715758674898e+18,0.20244651033,1.77345957185,-9.6148957214
1.7176715760674898e+18,0.188720054625,1.76039923105,-9.61134061425
1.7176715762674898e+18,0.19044895935,1.7319808273000004,-9.62486499025
1.7176715764674898e+18,0.189782844535,1.7024547273,-9.638748619149998
1.7176715766674898e+18,0.16735198974,1.6729660492499998,-9.62898143005
1.7176715768674898e+18,0.15331118773500002,1.6280145263499999,-9.65178650655
1.7176715770674898e+18,0.145968955995,1.58161850745,-9.64718357855
1.7176715772674898e+18,0.149576454175,1.52123407745,-9.645746566749999
1.7176715774674898e+18,0.16390914918500002,1.4718218307500002,-9.694949249249998
1.7176715776674898e+18,0.16833245087,1.5077396394,-9.6630805206
1.7176715778674898e+18,0.16562308500999998,1.5088398512999999,-9.653642646799998
1.7176715780674898e+18,0.16280145262499998,1.4871499557,-9.6696593399
1.7176715782674898e+18,0.1627116394,1.4676529997499999,-9.6608800965
1.7176715784674898e+18,0.17687967681,1.4048735503499998,-9.62835273735
1.7176715786674898e+18,0.163093345635,1.2097767562500001,-9.76090958405
1.7176715788674898e+18,0.16882642364000003,1.1316542129,-9.70943911745
1.7176715790674898e+18,0.18104850768500003,1.0625354460499998,-9.7122832031
1.7176715792674898e+18,0.19882404327499997,0.997151412895,-9.746943626299998
1.7176715794674898e+18,0.19285894775500004,0.979712676995,-9.727693656949999
1.7176715796674898e+18,0.197529235845,0.9677375793399998,-9.732214256250002
1.7176715798674898e+18,0.20359911347,0.9599462814249999,-9.7299988633
1.7176715800674898e+18,0.20122654723999997,0.954752082825,-9.7346541825
1.7176715802674898e+18,0.20403321076000003,0.94106304931,-9.73857602685
1.7176715804674898e+18,0.205642364505,0.9343719634950001,-9.7270649643
1.7176715806674898e+18,0.21043988798999996,0.9219253463699998,-9.7467340621
1.7176715808674898e+18,0.20963905335500002,0.9251137161349998,-9.7332545929
1.7176715810674898e+18,0.20660785674499998,0.926969856245,-9.729796783500001
1.7176715812674898e+18,0.21017793274000002,0.9078620910550003,-9.744818046599999
1.7176715814674898e+18,0.212318481455,0.9132957916199999,-9.736996811000001
1.7176715816674898e+18,0.20638332366999998,0.9142912215999999,-9.73043296055
1.7176715818674898e+18,0.20601658629499994,0.89383625794,-9.72560549925
1.7176715820674898e+18,0.2041679306,0.8569080505350002,-9.761014366100001
1.7176715822674898e+18,0.19994670866999997,0.8543783111550001,-9.738561058
1.7176715824674898e+18,0.20400327301,0.8539442138599999,-9.74684632865
1.7176715826674898e+18,0.20930225374,0.86258873749,-9.7418766632
1.7176715828674898e+18,0.20762574006000004,0.8661962356549999,-9.7368396377
1.7176715830674898e+18,0.21299956512,0.8653879165599999,-9.7448704375
1.7176715832674898e+18,0.213980026255,0.8647667083799998,-9.741899116549998
1.7176715834674898e+18,0.21403241729999997,0.863516807565,-9.740289962699997
1.7176715836674898e+18,0.21489312744999997,0.8626486129550001,-9.7404695892
1.7176715838674898e+18,0.21113594055,0.8641455001950001,-9.738358978399999
1.7176715840674898e+18,0.21409229278999997,0.86142116546,-9.7415248946
1.7176715842674898e+18,0.21214633942,0.8572897567850001,-9.744264198199998
1.7176715844674898e+18,0.215327224725,0.8524697799650001,-9.74513239285
1.7176715846674898e+18,0.21292472076499996,0.843548332215,-9.7465020448
1.7176715848674898e+18,0.20623363494999997,0.84004561615,-9.753058410799998
1.7176715850674898e+18,0.21851559449,0.8583974533150001,-9.7270050888
1.7176715852674898e+18,0.21384530640000002,0.8581504669200001,-9.743006813049998
1.7176715854674898e+18,0.21174217986500002,0.84574127196,-9.74326876835
1.7176715856674898e+18,0.208538841245,0.8225769424400001,-9.743553177
1.7176715858674898e+18,0.20527562714499997,0.808079589845,-9.75304344175
1.7176715860674898e+18,0.2076824079238095,0.8149196515714285,-9.748228454714285
1.7176715862674898e+18,0.20793260192500002,0.83196990966,-9.73338931255
1.7176715864674898e+18,0.20424277496499998,0.8230858840949999,-9.749331161449998
1.7176715866674898e+18,0.219361335755,0.829657218945,-9.74555900575
1.7176715868674898e+18,0.21508772278499996,0.8213794326749999,-9.7442941361
1.7176715870674898e+18,0.21311183167499997,0.8229960708549999,-9.74435401155
1.7176715872674898e+18,0.23641088103,0.8244181137,-9.739803474499999
1.7176715874674898e+18,0.215514335635,0.8226218490699999,-9.750640937849997
1.7176715876674898e+18,0.21746777344999998,0.830158676145,-9.748268371550001
1.7176715878674898e+18,0.22826033021499997,0.8347466354349999,-9.73804463195
1.7176715880674898e+18,0.21862037658999997,0.8253162460300001,-9.74397230525
1.7176715882674898e+18,0.22349274444499997,0.81905925751,-9.747310363650001
1.7176715884674898e+18,0.22766905975,0.8166118469300001,-9.7382766494
1.7176715886674898e+18,0.21850811005499998,0.812824722295,-9.7475798034
1.7176715888674898e+18,0.225745559705,0.8052504730300001,-9.744840499899999
1.7176715890674898e+18,0.21874761200499998,0.79451030731,-9.747355270400002
1.7176715892674898e+18,0.19795584869,0.7941735077,-9.75299105075
1.7176715894674898e+18,0.17657281492999996,0.784907775875,-9.729198028599999
1.7176715896674898e+18,0.20691471863,0.7476801910499999,-9.79985110475
1.7176715898674898e+18,0.20122654724000003,0.8399932251,-9.7211223221
1.7176715900674898e+18,0.17199234008,0.8861946487400001,-9.734407196100001
1.7176715902674898e+18,0.194093879695,0.901702400205,-9.73331446835
1.7176715904674898e+18,0.19493962097999998,0.8968300323400001,-9.7359938965
1.7176715906674898e+18,0.19639908599499997,0.89626121521,-9.73660762015
1.7176715908674898e+18,0.20175794220999999,0.8895701293899998,-9.737760223399999
1.7176715910674898e+18,0.20321740723,0.8674012298599999,-9.7461727294
1.7176715912674898e+18,0.20439994811499998,0.85065854644,-9.7327306824
1.7176715914674898e+18,0.21112845611500003,0.8201370163049999,-9.74828334035
1.7176715916674898e+18,0.21427940369499998,0.7758815460149999,-9.74893448635
1.7176715918674898e+18,0.22697300720499997,0.7436535644550001,-9.75389666755
1.7176715920674898e+18,0.23979384612,0.7150255966100001,-9.764539535549998
1.7176715922674898e+18,0.24296724700000003,0.71155281829,-9.75328294385
1.7176715924674898e+18,0.23941213989,0.71038524628,-9.75059603115
1.7176715926674898e+18,0.24122337341500005,0.7083494796650001,-9.75406880945
1.7176715928674898e+18,0.23546035766499998,0.7008575592049999,-9.754420578
1.7176715930674898e+18,0.239427108765,0.70846174622,-9.751509132299999
1.7176715932674898e+18,0.235101104735,0.717188598625,-9.74992991625
1.7176715934674898e+18,0.240998840325,0.71162766265,-9.760288375799998
1.7176715936674898e+18,0.23929238892,0.7080875244249999,-9.7479091187
1.7176715938674898e+18,0.24118595123000003,0.6972201232949999,-9.759173194999999
1.7176715940674898e+18,0.22982457733,0.7043453063849998,-9.7470783462
1.7176715942674898e+18,0.23336471557,0.6963668975749999,-9.759996482800002
1.7176715944674898e+18,0.24721840667499997,0.6920483779900001,-9.74868749995
1.7176715946674898e+18,0.23184537506000003,0.6815402298050002,-9.761164054850001
1.7176715948674898e+18,0.24289988708499996,0.6801331558249999,-9.75087295525
1.7176715950674898e+18,0.23656805419500002,0.67407824708,-9.753320365950001
1.7176715952674898e+18,0.23251897430499996,0.672079902655,-9.757923294
1.7176715954674898e+18,0.23664289855500004,0.674257873535,-9.75146422575
1.7176715956674898e+18,0.24069946289000002,0.66541127015,-9.76363391875
1.7176715958674898e+18,0.24029530334499993,0.6664890289250001,-9.75453284465
1.7176715960674898e+18,0.24286994934500003,0.664999626165,-9.752018074
1.7176715962674898e+18,0.24391028594500003,0.644305160525,-9.75460020465
1.7176715964674898e+18,0.2358452715238095,0.6145648629380952,-9.76100189204762
1.7176715966674898e+18,0.24854315186,0.6044580230700001,-9.760011451649998
1.7176715968674898e+18,0.25054149626,0.6051690445,-9.760430580100001
1.7176715970674898e+18,0.24719595335999997,0.60218275451,-9.754285858200001
1.7176715972674898e+18,0.24227867890000004,0.58017851257,-9.785907600250003
1.7176715974674898e+18,0.24576642608500002,0.61137364196,-9.74546919245
1.7176715976674898e+18,0.24284749603,0.6144123229899999,-9.77047469335
1.7176715978674898e+18,0.24408991240999994,0.631416961655,-9.75078314205
1.7176715980674898e+18,0.24206911468999998,0.6280789031999999,-9.75694283295
1.7176715982674898e+18,0.24477099610000003,0.61839404298,-9.760714988650001
1.7176715984674898e+18,0.24007825469499994,0.61540026855,-9.763057617300001
1.7176715986674898e+18,0.24162004853499996,0.623782836925,-9.746172729400001
1.7176715988674898e+18,0.24212899016000003,0.6050343246400001,-9.7628031464
1.7176715990674898e+18,0.24849076079500004,0.5880970458999999,-9.75110497295
1.7176715992674898e+18,0.248984733585,0.5713169403149999,-9.765737045199998
1.7176715994674898e+18,0.24949367524000002,0.5683980102449999,-9.76645555125
1.7176715996674898e+18,0.24037763214500002,0.5696104888949999,-9.76471916195
1.7176715998674898e+18,0.24329656218,0.5687572631799999,-9.7682667846
1.7176716000674898e+18,0.24056474303499997,0.58709413147,-9.755326194799997
1.7176716002674898e+18,0.239150184625,0.5873411178500001,-9.763499198849999
1.7176716004674898e+18,0.24029530334000002,0.5993611221350001,-9.75654615785
1.7176716006674898e+18,0.23828947449500001,0.612668449415,-9.762361564650002
1.7176716008674898e+18,0.238319412225,0.6145545272799999,-9.7591282883
1.7176716010674898e+18,0.24370072173499996,0.62137284852,-9.757885871900001
1.7176716012674898e+18,0.23798261261000003,0.62372296142,-9.757234725850001
1.7176716014674898e+18,0.24158262633500005,0.611852645865,-9.763162399349998
1.7176716016674898e+18,0.23937471771,0.5945710830650001,-9.756171936100001
1.7176716018674898e+18,0.23617137909500002,0.573464973435,-9.7604156113
1.7176716020674898e+18,0.23759342194500005,0.56264996338,-9.76740607455
1.7176716022674898e+18,0.23714435576999998,0.56262002563,-9.761186508100002
1.7176716024674898e+18,0.23334974669999994,0.57104750059,-9.7652730103
1.7176716026674898e+18,0.23461461639000003,0.5806275787349999,-9.763521652200001
1.7176716028674898e+18,0.23465203857,0.590798927315,-9.7551016617
1.7176716030674898e+18,0.23575225067500005,0.6033652954100001,-9.7598093719
1.7176716032674898e+18,0.23572979736000002,0.599420997615,-9.761770294250002
1.7176716034674898e+18,0.234188003545,0.60046133423,-9.758058014050002
1.7176716036674898e+18,0.23985372163,0.5945561142,-9.759173194850002
1.7176716038674898e+18,0.23445744323,0.5756953353900001,-9.7601910782
1.7176716040674898e+18,0.23004162597499994,0.56083124542,-9.7675108566
1.7176716042674898e+18,0.23687491607499997,0.5604121170099999,-9.759921638449999
1.7176716044674898e+18,0.23409819031500004,0.56379508208,-9.76864849095
1.7176716046674898e+18,0.23263124083999998,0.5741759948799999,-9.7601386871
1.7176716048674898e+18,0.23537802887999998,0.584489547735,-9.759263008150002
1.7176716050674898e+18,0.23247406768999998,0.5867049407899999,-9.762219360349999
1.7176716052674898e+18,0.23420297239999996,0.5897810440150001,-9.7633944169
1.7176716054674898e+18,0.23862627410999998,0.5993686065699999,-9.754443031250002
1.7176716056674898e+18,0.23468197632,0.602976104735,-9.7592929459
1.7176716058674898e+18,0.232736022935,0.607885894765,-9.759352821299998
1.7176716060674898e+18,0.240572227475,0.602878807065,-9.75531871025
1.7176716062674898e+18,0.23621628571000003,0.592011405935,-9.7622867201
1.7176716064674898e+18,0.23651566314500005,0.58824673461,-9.769808578500001
1.7176716066674898e+18,0.23639591217000006,0.59123302459,-9.7541137162
1.7176716068674898e+18,0.23449486541,0.5862858123750001,-9.76427758035
1.7176716070674898e+18,0.23642264230476193,0.5875068446523809,-9.762085353285714
1.7176716072674898e+18,0.23501877593499998,0.5888005828849999,-9.768723335249998
1.7176716074674898e+18,0.23412064361499998,0.606261772145,-9.75226506045
1.7176716076674898e+18,0.233057853695,0.6029386825449999,-9.76011623385
1.7176716078674898e+18,0.236133956905,0.6060896301300001,-9.75793077855
1.7176716080674898e+18,0.23677761841000003,0.605348670975,-9.760512909000001
1.7176716082674898e+18,0.23597678374999997,0.5998850326449999,-9.758656768749999
1.7176716084674898e+18,0.241537719735,0.5806350631700001,-9.758956146349998
1.7176716086674898e+18,0.23244412994000005,0.561991333015,-9.764457206749999
1.7176716088674898e+18,0.25333319092499995,0.5480253753550001,-9.767099212649999
1.7176716090674898e+18,0.24475602722499995,0.53886442566,-9.75595488755
1.7176716092674898e+18,0.25078099822999994,0.54442536163,-9.76385096735
1.7176716094674898e+18,0.24538471983499996,0.5468054122899999,-9.763918327450002
1.7176716096674898e+18,0.24667204284499994,0.5533318405150001,-9.770160347000001
1.7176716098674898e+18,0.235714828495,0.571728584285,-9.772734993050001
1.7176716100674898e+18,0.23182292176,0.6176605682299999,-9.740948593199999
1.7176716102674898e+18,0.23163581085499999,0.6272331619200001,-9.7599440919
1.7176716104674898e+18,0.22885160064500001,0.639440277105,-9.761553245599998
1.7176716106674898e+18,0.229375511165,0.64924488831,-9.75296859745
1.7176716108674898e+18,0.222721847525,0.6529571685800001,-9.7591881638
1.7176716110674898e+18,0.22068608093499997,0.6541921005200001,-9.756171936000001
1.7176716112674898e+18,0.22734722900499998,0.6597006454599998,-9.751643852199999
1.7176716114674898e+18,0.22549108886999997,0.662963859565,-9.756216842750002
1.7176716116674898e+18,0.22925576018999996,0.669482803345,-9.767795265249998
1.7176716118674898e+18,0.22849983215999997,0.68686914826,-9.74968293
1.7176716120674898e+18,0.22536385345499999,0.692617195135,-9.749203926049999
1.7176716122674898e+18,0.22579795074,0.68315686797,-9.75479479985
1.7176716124674898e+18,0.230071563725,0.6784416732949999,-9.75802059175
1.7176716126674898e+18,0.23201751707999999,0.6801331558099999,-9.752025558500003
1.7176716128674898e+18,0.23088736724000003,0.6755601654049999,-9.75169624335
1.7176716130674898e+18,0.23275847626000004,0.6715260543899999,-9.7543607025
1.7176716132674898e+18,0.23671774291500003,0.671675743095,-9.75623929595
1.7176716134674898e+18,0.23243664550500004,0.68100883484,-9.75991415405
1.7176716136674898e+18,0.235527717585,0.686442535395,-9.751172332800001
1.7176716138674898e+18,0.23468197632999996,0.686435050965,-9.7524596558
1.7176716140674898e+18,0.23313269805,0.68890491485,-9.757085037250002
1.7176716142674898e+18,0.230251190195,0.69395690916,-9.753619743300002
1.7176716144674898e+18,0.232242050165,0.6961573333750001,-9.750057151850003
1.7176716146674898e+18,0.23488405609000002,0.6817497940050001,-9.755730354399999
1.7176716148674898e+18,0.23212978362000003,0.678344375615,-9.752010589649998
1.7176716150674898e+18,0.234884056095,0.6733672256500001,-9.75546091455
1.7176716152674898e+18,0.234075736995,0.6729855194149998,-9.760026420649998
1.7176716154674898e+18,0.23251897429999996,0.67282834626,-9.754076293850002
1.7176716156674898e+18,0.23467449189499998,0.6775136032050001,-9.7544729691
1.7176716158674898e+18,0.23209236144999998,0.684444190965,-9.764906272800001
1.7176716160674898e+18,0.22210063934999996,0.7062014465299999,-9.74713073725
1.7176716162674898e+18,0.22624701692,0.7067927169899999,-9.7557378387
1.7176716164674898e+18,0.225094413765,0.701770660395,-9.757107490649998
1.7176716166674898e+18,0.22713018035999993,0.69958520508,-9.75221266945
1.7176716168674898e+18,0.22861958313000003,0.69842511749,-9.756508735699999
1.7176716170674898e+18,0.22923330688000002,0.6889872436600001,-9.7556106034
1.7176716172674898e+18,0.227691513055,0.686539833075,-9.755655510050001
1.7176716174674898e+18,0.23141876220476187,0.6836782837,-9.753788321428573
1.7176716176674898e+18,0.23356679534999997,0.66957261658,-9.752250091499999
1.7176716178674898e+18,0.22936054229999997,0.6688615951549999,-9.75946508795
1.7176716180674898e+18,0.23182292175500002,0.66242498016,-9.75640395355
1.7176716182674898e+18,0.22894889832,0.6663393402150001,-9.756650939900002
1.7176716184674898e+18,0.22984703064499995,0.6709272995,-9.759876731899999
1.7176716186674898e+18,0.23301294707500003,0.67042584229,-9.75617193605
1.7176716188674898e+18,0.23142624665000003,0.67712441253,-9.7558426208
1.7176716190674898e+18,0.23272853851500003,0.6766828308049999,-9.75793826295
1.7176716192674898e+18,0.23186034393,0.67700466156,-9.756478797949999
1.7176716194674898e+18,0.23120171356499997,0.6734420700099999,-9.752055496299999
1.7176716196674898e+18,0.230303581245,0.674459953295,-9.7571149749
1.7176716198674898e+18,0.23133643341500001,0.672079902655,-9.753043441649998
1.7176716200674898e+18,0.23603665924,0.6702686691299999,-9.757474227900001
1.7176716202674898e+18,0.23183040618,0.6635326767050002,-9.756501251249999
1.7176716204674898e+18,0.230348487865,0.658809997545,-9.75978691865
1.7176716206674898e+18,0.23029609679,0.65196173859,-9.759233070350001
1.7176716208674898e+18,0.22350022887500004,0.6544540557949999,-9.75811788935
1.7176716210674898e+18,0.23065534973,0.6567293243549999,-9.7568530197
1.7176716212674898e+18,0.22460792541000005,0.658158851625,-9.7595923234
1.7176716214674898e+18,0.220775894165,0.66690067291,-9.75188335415
1.7176716216674898e+18,0.22011726380000002,0.668599639885,-9.75750416565
1.7176716218674898e+18,0.22440584565000005,0.67395849609,-9.757242210500001
1.7176716220674898e+18,0.22422621917999996,0.6714137878349999,-9.7531482238
1.7176716222674898e+18,0.22608984375500002,0.678149780285,-9.756209358300001
1.7176716224674898e+18,0.22626198578499995,0.6775734786950002,-9.7557153855
1.7176716226674898e+18,0.22491478729,0.678838348385,-9.75199562085
1.7176716228674898e+18,0.22375469969,0.673307350165,-9.753702072200001
1.7176716230674898e+18,0.22617965698999995,0.666803375245,-9.757938263000002
1.7176716232674898e+18,0.222355110165,0.663817085275,-9.754809768850002
1.7176716234674898e+18,0.22566323089999996,0.6586603088449999,-9.7595324477
1.7176716236674898e+18,0.227556793215,0.65938629914,-9.7590459594
1.7176716238674898e+18,0.22818548583999995,0.668442466745,-9.75859689315
1.7176716240674898e+18,0.22085822295999996,0.67042584229,-9.752774001999999
1.7176716242674898e+18,0.22300625611,0.6706129531899999,-9.7517261811
1.7176716244674898e+18,0.22144949341999998,0.65500041962,-9.782958732800001
1.7176716246674898e+18,0.23210733032,0.6789431304899999,-9.725583046
1.7176716248674898e+18,0.1870809631395,0.699652565005,-9.7614709168
1.7176716250674898e+18,0.247682441715,0.5141957244800001,-9.80793429525
1.7176716252674898e+18,0.168661766045,0.692003471315,-10.006436508599998
1.7176716254674898e+18,-0.12490775295149996,1.5165263671400002,-8.934575454900001
1.7176716256674898e+18,0.303703445407,2.1175190963499997,-10.499975189
1.7176716258674898e+18,0.127617118836,3.1120958633499995,-9.5831317745
1.7176716260674898e+18,1.11462712092275,4.5098741684000005,-8.210007202249999
1.7176716262674898e+18,2.4317830811850003,5.70910535425,-7.852797523500001
1.7176716264674898e+18,3.9303018951999995,5.96751299285,-6.45536350245
1.7176716266674898e+18,5.5306838836,6.3500724564499995,-5.4812566680999995
1.7176716268674898e+18,6.2259954758000005,6.74141864775,-3.8489161377500003
1.7176716270674898e+18,6.31232096105,6.324550529549999,-2.0190239181500003
1.7176716272674898e+18,7.8568615723,6.1773316727,-1.524093132045
1.7176716274674898e+18,8.79320194255,5.632861404449999,-0.020582199093100006
1.7176716276674898e+18,8.7905075451,4.695967185999999,3.3585433730385006
1.7176716278674898e+18,7.303262786904763,3.3563561357142864,5.329859357666667
1.7176716280674898e+18,7.58707010655,2.261497192285,6.368529075650001
1.7176716282674898e+18,2.1889281006349997,-0.04686753836949997,9.46525190715
1.7176716284674898e+18,0.25878186029499994,2.4155343703699996,8.54561679845
1.7176716286674898e+18,-1.301835319585,2.7701768874999995,8.967716537349999
1.7176716288674898e+18,-0.7566764832139999,1.6806899871599998,7.404958808799999
1.7176716290674898e+18,-0.22903871157300001,-0.9747804336475001,9.586073158349999
1.7176716292674898e+18,0.58989331062,-2.2364168470999997,12.237898659
1.7176716294674898e+18,0.184895507826,-2.2730681305,11.959155807
1.7176716296674898e+18,-0.15367792513999995,0.11769275664199999,8.94176799735
1.7176716298674898e+18,1.07028183746,2.0550090866320003,5.25412648775
1.7176716300674898e+18,0.337435798628,-0.3506158905005,11.6851880268
1.7176716302674898e+18,0.868366722095,-1.3152399444199998,12.375574858999999
1.7176716304674898e+18,0.230707740784,-1.0758801957704998,10.844730766
1.7176716306674898e+18,-0.17734371185500003,1.264270935065,4.8637083664
1.7176716308674898e+18,1.0424621886974998,0.18821111298950005,9.8077322163
1.7176716310674898e+18,1.1948378220199998,-1.4841861190869998,13.546507393000002
1.7176716312674898e+18,0.53701576996,-0.9933193816950002,10.48999843595
1.7176716314674898e+18,-0.305260208153,1.6148269499925,5.0177530289
1.7176716316674898e+18,-0.11477382660149997,-0.279723312349,10.45475422665
1.7176716318674898e+18,0.6617064743350001,-1.4194457474749997,13.384446899000002
1.7176716320674898e+18,0.8196729812999999,-1.016813026425,10.626207686749998
1.7176716322674898e+18,0.0780926055875,1.6591198425875002,4.39245833585
1.7176716324674898e+18,0.6754703521905,0.2877615966855,10.3315080186
1.7176716326674898e+18,0.8497678985920001,-0.9961110763399998,13.225574775500002
1.7176716328674898e+18,0.6595285033955499,-0.6644233245665,10.9402471395
1.7176716330674898e+18,0.6412964172075,0.708506652809,8.886225997950003
1.7176716332674898e+18,0.48760352331999995,1.7807269591500003,7.6036331634000005
1.7176716334674898e+18,1.14157109067,2.48327600105,9.132830680949997
1.7176716336674898e+18,2.5201443328,2.8155999298500003,8.18357217415
1.7176716338674898e+18,4.683520569,3.6148404006500003,7.34979103095
1.7176716340674898e+18,5.95967678825,3.961309913550001,6.44447364815
1.7176716342674898e+18,9.462991607400001,3.49089813995,5.707503685050001
1.7176716344674898e+18,6.88555391685,4.52476819605,1.8467771072350003
1.7176716346674898e+18,7.896050079449999,4.4796595001,-3.2395483246
1.7176716348674898e+18,5.914515701399999,3.7263210754250005,-7.8120597380499985
1.7176716350674898e+18,6.48072825637,1.0691591720925,-8.246022308354998
1.7176716352674898e+18,3.5381773223499997,1.84265318295,-9.291568084499998
1.7176716354674898e+18,0.993963043137,1.2803250503899997,-9.465745880599998
1.7176716356674898e+18,0.9389449539600001,0.45040587615499994,-9.939443321850002
1.7176716358674898e+18,0.8161852341349999,0.32201037598,-10.026187934900001
1.7176716360674898e+18,0.7256534957695001,0.7102505264500001,-9.6241015778
1.7176716362674898e+18,0.8161852340949999,0.769796699545,-9.7356346435
1.7176716364674898e+18,0.8965680770799999,0.8518710251349999,-9.67010092175
1.7176716366674898e+18,1.2242591399975002,0.8591982879350001,-9.59300374595
1.7176716368674898e+18,0.0661624145595,0.7014188919650001,-9.8778464124
1.7176716370674898e+18,-0.49785720059300004,1.0876906356699998,-9.6571079405
1.7176716372674898e+18,0.10086774443999999,0.7894134063680001,-10.0686546246
1.7176716374674898e+18,0.5829402694679999,0.7598199462899999,-9.4355012736
1.7176716376674898e+18,0.32893347931,0.8247249755950001,-9.7355223771
1.7176716378674898e+18,0.346723983775,0.8272172927850001,-9.732498664849999
1.7176716380674898e+18,0.37581598663,0.8126226425149999,-9.74442885575
1.7176716382674898e+18,0.37432658386999995,0.8026084671,-9.743665443400001
1.7176716384674898e+18,0.36867619104761906,0.8064800589380953,-9.740188031857143
1.7176716386674898e+18,0.37306171418,0.8029527511550001,-9.743246315050001
1.7176716388674898e+18,0.36868331908499996,0.8021369476250001,-9.7403872604
1.7176716390674898e+18,0.37092864991,0.793252922055,-9.7451997529
1.7176716392674898e+18,0.3688928833,0.790573493955,-9.7392720794
1.7176716394674898e+18,0.37182678223,0.78419675445,-9.744077087399997
1.7176716396674898e+18,0.36957396698,0.7826774139299999,-9.745514099100001
1.7176716398674898e+18,0.36868331908999996,0.7837476883,-9.741345268249999
1.7176716400674898e+18,0.37060681915000004,0.78354560852,-9.74442885585
1.7176716402674898e+18,0.37096607209,0.782729804985,-9.745955680799998
1.7176716404674898e+18,0.3698883133,0.78531193541,-9.74286460885
1.7176716406674898e+18,0.376961105345,0.7853643264850001,-9.74197396085
1.7176716408674898e+18,0.38387672422999997,0.78067906952,-9.747332817050001
1.7176716410674898e+18,0.38502184295499997,0.778718147265,-9.73853112035
1.7176716412674898e+18,0.387297111505,0.77950401307,-9.742280822800002
1.7176716414674898e+18,0.39041812134500004,0.7803722076399999,-9.743051719649998
1.7176716416674898e+18,0.38965470886,0.7817343750099999,-9.7412629394
1.7176716418674898e+18,0.39146594238000004,0.7836952972499999,-9.74102343745
1.7176716420674898e+18,0.3948114853,0.780611709585,-9.7439124298
1.7176716422674898e+18,0.391308769235,0.78339591979,-9.7393544084
1.7176716424674898e+18,0.3944372634849999,0.784720664975,-9.741479988050001
1.7176716426674898e+18,0.391054298395,0.78401712799,-9.74354569245
1.7176716428674898e+18,0.39328466034,0.782647476195,-9.74316398625
1.7176716430674898e+18,0.3945046234249999,0.7833210754450001,-9.741105766299999
1.7176716432674898e+18,0.38678816987000003,0.779466590885,-9.74348581695
1.7176716434674898e+18,0.38856946562999994,0.7795713729700001,-9.74379267895
1.7176716436674898e+18,0.38411622619499997,0.7846533050500002,-9.74336606605
1.7176716438674898e+18,0.38506674958500003,0.7801027679450001,-9.74402469625
1.7176716440674898e+18,0.37903429412999995,0.7821535034149999,-9.739938194299999
1.7176716442674898e+18,0.381466735835,0.7876096572799999,-9.7467789688
1.7176716444674898e+18,0.383539924605,0.78438386534,-9.743253799400001
1.7176716446674898e+18,0.38056111908,0.78706329346,-9.74189163205
1.7176716448674898e+18,0.38105509185,0.78789406585,-9.74122551725
1.7176716450674898e+18,0.38108502961,0.78850030517,-9.74224340055
1.7176716452674898e+18,0.38122723388499996,0.7880512390200001,-9.7431789551
1.7176716454674898e+18,0.38410125732500006,0.792444602965,-9.743747772350002
1.7176716456674898e+18,0.378607681265,0.79000467682,-9.7445336379
1.7176716458674898e+18,0.38199813078999995,0.79339512635,-9.74326876835
1.7176716460674898e+18,0.38392163086,0.7906184005549999,-9.74061179355
1.7176716462674898e+18,0.382813934325,0.7966433715799999,-9.7463972626
1.7176716464674898e+18,0.38005966185,0.79199553681,-9.7433585816
1.7176716466674898e+18,0.381668815615,0.7892487487799998,-9.7444737624
1.7176716468674898e+18,0.37582347106499997,0.7832462310799999,-9.73969869235
1.7176716470674898e+18,0.375524093635,0.786352272045,-9.748313278200001
1.7176716472674898e+18,0.375075027465,0.7896379394449999,-9.74217604065
1.7176716474674898e+18,0.37628002167,0.788822135925,-9.743882492000001
1.7176716476674898e+18,0.37991745759,0.7896603927499999,-9.740566887
1.7176716478674898e+18,0.37318894958500004,0.7916886749300001,-9.740918655300002
1.7176716480674898e+18,0.37013529967500003,0.7959473190299999,-9.7419215699
1.7176716482674898e+18,0.372769821165,0.79712237549,-9.742595169149999
1.7176716484674898e+18,0.37958814238999994,0.7934475174,-9.739257110599999
1.7176716486674898e+18,0.37422180175499997,0.79593235016,-9.74585089875
1.7176716488674898e+18,0.37009466988571427,0.7952462768571428,-9.744536132714286
1.7176716490674898e+18,0.357958122255,0.79937519073,-9.740701606750001
1.7176716492674898e+18,0.34383499144499996,0.80174027252,-9.737730285550002
1.7176716494674898e+18,0.33816178894000004,0.7781642990050001,-9.74933116155
1.7176716496674898e+18,0.3299214248600001,0.747859817505,-9.692928451449998
1.7176716498674898e+18,0.281706687925,0.58933197785,-9.7967525482
1.7176716500674898e+18,0.294265571605,0.46741051482499996,-9.7712231368
1.7176716502674898e+18,0.28886929320500004,0.42522823333999993,-9.759060928350001
1.7176716504674898e+18,0.28249255372000004,0.35801051331,-9.789612396099999
1.7176716506674898e+18,0.28659402466,0.32570020295,-9.76077486415
1.7176716508674898e+18,0.29591963196,0.283413139345,-9.7817088318
1.7176716510674898e+18,0.284034347525,0.233312324525,-9.788848983750002
1.7176716512674898e+18,0.279760734555,0.212797485365,-9.77496535505
1.7176716514674898e+18,0.28449089813,0.20705692292500003,-9.774007347049999
1.7176716516674898e+18,0.280000236515,0.205440284715,-9.771702141000002
1.7176716518674898e+18,0.28474536895999997,0.19892882536999998,-9.774815666199999
1.7176716520674898e+18,0.28452083588500005,0.196930480955,-9.772667633000001
1.7176716522674898e+18,0.286960762025,0.19214044189500004,-9.77352834315
1.7176716524674898e+18,0.27961104583999996,0.19002234649500002,-9.778999465900002
1.7176716526674898e+18,0.2822081451349999,0.183159118655,-9.7775325164
1.7176716528674898e+18,0.28395201875,0.1822535019,-9.777779502899998
1.7176716530674898e+18,0.28068132018499997,0.17351916503499998,-9.763783607399999
1.7176716532674898e+18,0.27766509246,0.13517639923,-9.787045234649998
1.7176716534674898e+18,0.274431816105,0.111263626092,-9.777450187699998
1.7176716536674898e+18,0.267830543515,0.09740993499749999,-9.782636901850001
1.7176716538674898e+18,0.26336233520999996,0.098846946722,-9.770265129050001
1.7176716540674898e+18,0.25329576873000004,0.08368347931049999,-9.784298446650002
1.7176716542674898e+18,0.26089247131,0.07606432342450001,-9.780458930950001
1.7176716544674898e+18,0.23213726807,0.09066645812850001,-9.783991584749998
1.7176716546674898e+18,0.27815906524000006,0.0962498474125,-9.773348716750002
1.7176716548674898e+18,0.26643843841,0.09698332214000001,-9.777016090450001
1.7176716550674898e+18,0.260600578305,0.092313034055,-9.776447273200002
1.7176716552674898e+18,0.268107467655,0.088368736267,-9.7742019425
1.7176716554674898e+18,0.26659561157,0.091474777225,-9.7827341995
1.7176716556674898e+18,0.2692151641750001,0.0918115768455,-9.771874282750002
1.7176716558674898e+18,0.26710455322000004,0.0935404815695,-9.783497612
1.7176716560674898e+18,0.268960693365,0.09531429290599999,-9.775616500899998
1.7176716562674898e+18,0.268406845105,0.09312883758550002,-9.7794635009
1.7176716564674898e+18,0.27200685882,0.09158704376650001,-9.777727111749998
1.7176716566674898e+18,0.27130332183999994,0.0953217773395,-9.7793063278
1.7176716568674898e+18,0.26994863891,0.0922157363875,-9.776671806250002
1.7176716570674898e+18,0.270352798455,0.0870439910885,-9.77637242885
1.7176716572674898e+18,0.272351142885,0.0823512496945,-9.77648469545
1.7176716574674898e+18,0.26757607267999994,0.0777707748415,-9.778161209
1.7176716576674898e+18,0.26939479065,0.0769100646965,-9.7815741119
1.7176716578674898e+18,0.26729166413,0.07889344024700001,-9.777345405499998
1.7176716580674898e+18,0.27208170319,0.083039817809,-9.779456016700001
1.7176716582674898e+18,0.271946983335,0.08237370300249999,-9.778071395800001
1.7176716584674898e+18,0.27033782959,0.0861907653815,-9.77596078495
1.7176716586674898e+18,0.272800209035,0.09023984527800001,-9.780211944600001
1.7176716588674898e+18,0.270599784845,0.08815168762299999,-9.779388656600002
1.7176716590674898e+18,0.27110872651,0.09083111572399999,-9.774950386
1.7176716592674898e+18,0.27147546388,0.08851094055049999,-9.78137951655
1.7176716594674898e+18,0.27079402379047623,0.0894211905352381,-9.778736441428572
1.7176716596674898e+18,0.27051745606,0.0841400299075,-9.78078076175
1.7176716598674898e+18,0.267620979305,0.07265890502950001,-9.7788273239
1.7176716600674898e+18,0.27072702026,0.07394622802699999,-9.776948730400001
1.7176716602674898e+18,0.26732160187,0.0729058914185,-9.780743339649998
1.7176716604674898e+18,0.27137068176,0.0763487319945,-9.77616286465
1.7176716606674898e+18,0.26857898712,0.07551047515849998,-9.7792838746
1.7176716608674898e+18,0.27354865265,0.084132545472,-9.780661010699998
1.7176716610674898e+18,0.27490333557,0.09314380645800001,-9.7731166992
1.7176716612674898e+18,0.27625053406,0.0900302810655,-9.781581596499999
1.7176716614674898e+18,0.27607839204,0.084072669982,-9.776971183749998
1.7176716616674898e+18,0.27048751831500006,0.081947090148,-9.7791192169
1.7176716618674898e+18,0.274776100165,0.08178243255550001,-9.782240226699999
1.7176716620674898e+18,0.271250930785,0.0841924209595,-9.775204856950001
1.7176716622674898e+18,0.272261329645,0.08116870879999999,-9.781783676149999
1.7176716624674898e+18,0.27164012147,0.081602806091,-9.77569134525
1.7176716626674898e+18,0.27102639771,0.084140029908,-9.776275131150001
1.7176716628674898e+18,0.273428901675,0.08433462524400001,-9.77421691145
1.7176716630674898e+18,0.27645261381999997,0.08503067779649999,-9.779171608
1.7176716632674898e+18,0.27485094452,0.08377329254249997,-9.7759682692
1.7176716634674898e+18,0.27402017212,0.0825533294675,-9.7770609969
1.7176716636674898e+18,0.273009773265,0.089199508668,-9.77291461955
1.7176716638674898e+18,0.27454408264499996,0.08207432556050001,-9.7790593415
1.7176716640674898e+18,0.273473808285,0.07803273010299999,-9.778655182
1.7176716642674898e+18,0.2750605087300001,0.0719254302985,-9.77669425965
1.7176716644674898e+18,0.26955944825,0.0635503463765,-9.777876800599998
1.7176716646674898e+18,0.26810746765500004,0.056357803344,-9.7806759795
1.7176716648674898e+18,0.27024053192999997,0.0637150039665,-9.777412765400003
1.7176716650674898e+18,0.27297235106500006,0.065039749146,-9.7738202362
1.7176716652674898e+18,0.27144552611999995,0.06679110717749999,-9.77976287845
1.7176716654674898e+18,0.27283014678499995,0.06729256439249999,-9.78062358865
1.7176716656674898e+18,0.27168502808,0.0720302124025,-9.77685891725
1.7176716658674898e+18,0.27270291137,0.0716934127805,-9.7743142089
1.7176716660674898e+18,0.27197692107999993,0.07149133300750002,-9.7785129777
1.7176716662674898e+18,0.27349626159499996,0.0729807357785,-9.7799275362
1.7176716664674898e+18,0.27494075774499993,0.073579490662,-9.776454757700002
1.7176716666674898e+18,0.272134094245,0.080397811892,-9.776649353
1.7176716668674898e+18,0.26690995788499994,0.0786988449095,-9.769868454000001
1.7176716670674898e+18,0.27303971099,0.048080017089999996,-9.792067291299999
1.7176716672674898e+18,0.26457481384500003,0.050819320678000005,-9.7695541077
1.7176716674674898e+18,0.267329086295,0.0455203399655,-9.780825668400002
1.7176716676674898e+18,0.26464217376,0.037062927246499996,-9.779882629549999
1.7176716678674898e+18,0.26626629639,0.029698242186000007,-9.777427734449999
1.7176716680674898e+18,0.26449996947499993,0.0327144699105,-9.780226913349999
1.7176716682674898e+18,0.26473947144000004,0.04061054992699999,-9.7789021682
1.7176716684674898e+18,0.26642346952999996,0.042706192017,-9.77757742315
1.7176716686674898e+18,0.267725761415,0.04691244506850001,-9.77966558075
1.7176716688674898e+18,0.26900559997000006,0.0512459335315,-9.77584103385
1.7176716690674898e+18,0.26733657074000006,0.0497041397095,-9.778265991099998
1.7176716692674898e+18,0.27253076934,0.051852172852,-9.78014458455
1.7176716694674898e+18,0.26814488983,0.055429733275999996,-9.77537699885
1.7176716696674898e+18,0.270457580575,0.0535586242685,-9.785151672349999
1.7176716698674898e+18,0.2702237810523809,0.059198325022380954,-9.777203914190476
1.7176716700674898e+18,0.277867172235,0.0626896362305,-9.776836464
1.7176716702674898e+18,0.27631040956,0.06565347289949999,-9.7767765885
1.7176716704674898e+18,0.27042015838999994,0.058386085509,-9.779411109900002
1.7176716706674898e+18,0.273945327765,0.0484841766365,-9.780047286999999
1.7176716708674898e+18,0.26853408051499994,0.0486413497935,-9.775077621399998
1.7176716710674898e+18,0.267216819775,0.0446147232045,-9.774456413300001
1.7176716712674898e+18,0.264567329415,0.0335153045655,-9.786753341650002
1.7176716714674898e+18,0.26695486449500005,0.038050872803,-9.780084709099999
1.7176716716674898e+18,0.26276358034,0.0491053848275,-9.775683860900001
1.7176716718674898e+18,0.26545797728500004,0.051433044434499996,-9.78184355155
1.7176716720674898e+18,0.266760269175,0.05484594726499999,-9.773962440500002
1.7176716722674898e+18,0.26719436644999994,0.05496569824249999,-9.7765670241
1.7176716724674898e+18,0.26926007080000003,0.0553923110965,-9.778722541799999
1.7176716726674898e+18,0.26778563691,0.0565299453725,-9.78123731225
1.7176716728674898e+18,0.27029292297500007,0.06010002136250001,-9.771050995
1.7176716730674898e+18,0.26960435487,0.06037694549549999,-9.777046028200001
1.7176716732674898e+18,0.2712434463549999,0.065436424256,-9.78058616645
1.7176716734674898e+18,0.27336902618500003,0.070780311583,-9.7738651428
1.7176716736674898e+18,0.27225384521999996,0.062240570067500015,-9.7757587052
1.7176716738674898e+18,0.26910289764999995,0.059089622497499994,-9.78122234345
1.7176716740674898e+18,0.273219337465,0.059052200317500005,-9.7723458022
1.7176716742674898e+18,0.270480033875,0.050093330384000004,-9.78023439795
1.7176716744674898e+18,0.26828709411999996,0.050924102783000004,-9.7802942733
1.7176716746674898e+18,0.26623635864,0.0469947738645,-9.77845310215
1.7176716748674898e+18,0.26969416808499996,0.04992867279,-9.773939987199999
1.7176716750674898e+18,0.26657315826500005,0.05812413024950001,-9.78071340175
1.7176716752674898e+18,0.27121350860500004,0.0578172683705,-9.77721068585
1.7176716754674898e+18,0.27268794250000006,0.057016433715,-9.7764921799
1.7176716756674898e+18,0.27023304749,0.0594788131705,-9.778146240199998
1.7176716758674898e+18,0.273765701295,0.06268963623049999,-9.77690382385
1.7176716760674898e+18,0.273922874455,0.056080879211,-9.7810801392
1.7176716762674898e+18,0.27414740754,0.0594339065555,-9.7708264617
1.7176716764674898e+18,0.27297235108,0.05650000762849999,-9.77742024995
1.7176716766674898e+18,0.2701956253,0.0519794082655,-9.78146184535
1.7176716768674898e+18,0.27077941131000005,0.05315446472100001,-9.77299694825
1.7176716770674898e+18,0.26731411744000005,0.050924102784500005,-9.779822753950002
1.7176716772674898e+18,0.26836193846999995,0.045722419738500004,-9.7818884582
1.7176716774674898e+18,0.26771079254,0.0463585968015,-9.78906603255
1.7176716776674898e+18,0.27440936279,0.0718356170655,-9.76177029415
1.7176716778674898e+18,0.274252189625,0.0676593017585,-9.776514633200001
1.7176716780674898e+18,0.27113866424500005,0.05875282287650001,-9.78028678895
1.7176716782674898e+18,0.27040518951000003,0.057166122435,-9.7808556061
1.7176716784674898e+18,0.27020310975,0.050826805115000005,-9.779306327749998
1.7176716786674898e+18,0.2686987381,0.053117042542000004,-9.7746210709
1.7176716788674898e+18,0.274012687675,0.0546214141855,-9.777315468000001
1.7176716790674898e+18,0.26856401824000004,0.053588562012000004,-9.7809454193
1.7176716792674898e+18,0.27360104371,0.05434449005099999,-9.7781013337
1.7176716794674898e+18,0.273226821895,0.047825546263499996,-9.782913826149999
1.7176716796674898e+18,0.271991889955,0.052578163146,-9.76829672245
1.7176716798674898e+18,0.27267297363,0.04494403839249999,-9.778692604
1.7176716800674898e+18,0.269469635005,0.0424891433725,-9.778947074850002
1.7176716802674898e+18,0.273548652645,0.0387020187385,-9.7706168975
1.7176716804674898e+18,0.2712716020809524,0.03561878749333334,-9.788530360571425
1.7176716806674898e+18,0.27306964875000006,0.04354444885250001,-9.771425216649998
1.7176716808674898e+18,0.270128265385,0.043656715392,-9.7842759932
1.7176716810674898e+18,0.27308461761,0.047795608520000005,-9.77138031005
1.7176716812674898e+18,0.26921516418,0.0439935150155,-9.775279701250001
1.7176716814674898e+18,0.27390790558,0.0466355209355,-9.77961318965
1.7176716816674898e+18,0.27500063324,0.05173242187549999,-9.77339362335
1.7176716818674898e+18,0.27348129273,0.04757107544,-9.7810651703
1.7176716820674898e+18,0.275359886165,0.0519943771365,-9.7781761779
1.7176716822674898e+18,0.269402275085,0.0371901626585,-9.7895001298
1.7176716824674898e+18,0.274761131285,0.04897814941300001,-9.765639747749999
1.7176716826674898e+18,0.27133325959,0.030858329773500004,-9.788923828050002
1.7176716828674898e+18,0.26875861359000003,0.034121543884,-9.765482574500002
1.7176716830674898e+18,0.27159521485499993,0.0271610183715,-9.779762878449999
1.7176716832674898e+18,0.267927841185,0.021278251648599998,-9.79351927185
1.7176716834674898e+18,0.275569450375,0.036089950562,-9.760984428350003
1.7176716836674898e+18,0.27500063323999996,0.0292716293335,-9.777809440650001
1.7176716838674898e+18,0.264185623165,0.0351993026725,-9.786917999249997
1.7176716840674898e+18,0.27074947357,0.037444633484999996,-9.77771214305
1.7176716842674898e+18,0.26918522645000004,0.027610084533000002,-9.78125976565
1.7176716844674898e+18,0.27315946198,0.040850051879,-9.765198166000001
1.7176716846674898e+18,0.26830954743,0.03292403411900001,-9.781274734499998
1.7176716848674898e+18,0.2644326095600001,0.030648765564499997,-9.788714263900001
1.7176716850674898e+18,0.27428961180999994,0.040917411804,-9.771350372350001
1.7176716852674898e+18,0.272351142895,0.029578491211499996,-9.7806161042
1.7176716854674898e+18,0.26518105315999996,0.036920722961000005,-9.768304206749999
1.7176716856674898e+18,0.269080444335,0.029121940613000004,-9.78270426165
1.7176716858674898e+18,0.26948460388499995,0.02956352233749999,-9.778168693650002
1.7176716860674898e+18,0.265562759405,0.0293165359485,-9.77535454565
1.7176716862674898e+18,0.26718688202,0.0295335845955,-9.77268260195
1.7176716864674898e+18,0.26467211151000003,0.031352302551,-9.780870574849999
1.7176716866674898e+18,0.27012078094,0.0235310668945,-9.776013176100001
1.7176716868674898e+18,0.267703308105,0.023583457945900003,-9.7755416565
1.7176716870674898e+18,0.266835113515,0.020125648499000004,-9.7784306488
1.7176716872674898e+18,0.26686505126999993,0.0226104812613,-9.7760281448
1.7176716874674898e+18,0.26734405517,0.01207987976125,-9.78753172305
1.7176716876674898e+18,0.26362429046999997,0.01537303161555,-9.77611795805
1.7176716878674898e+18,0.268062561035,0.01494641876165,-9.7781612091
1.7176716880674898e+18,0.264088325505,0.0169148254393,-9.774778244
1.7176716882674898e+18,0.266917442325,0.015118560790579999,-9.778408195550002
1.7176716884674898e+18,0.263923667905,0.015844551085199998,-9.7755042344
1.7176716886674898e+18,0.24489074706500005,0.02223625946008,-9.755445945950001
1.7176716888674898e+18,0.264050903325,0.120357215885175,-9.8048132857
1.7176716890674898e+18,0.438775062555,0.19909348297499999,-9.74621763605
1.7176716892674898e+18,0.38083055881450006,0.2158586196815,-9.785136703549998
1.7176716894674898e+18,0.99098423768,-0.03259471893,-9.67316205605
1.7176716896674898e+18,1.5633115768950003,-0.4494179306039999,-9.740207633450002
1.7176716898674898e+18,1.4113850097692,0.19666104125,-10.2872450647
1.7176716900674898e+18,1.9662960662499998,1.8895282058999996,-9.2769285279
1.7176716902674898e+18,1.918635177605,3.1825992508499996,-9.01986060335
1.7176716904674898e+18,3.2580049438500005,5.025813766449999,-8.174740539500002
1.7176716906674898e+18,3.3571512679499995,5.974353767249999,-7.250996475199999
1.7176716908674898e+18,5.609233039849999,6.1097771529500005,-5.559079833949999
1.7176716910674898e+18,8.090155007571429,5.529586879142856,-2.782043282604762
1.7176716912674898e+18,9.041827423049998,5.13257924655,1.766386779825
1.7176716914674898e+18,6.620342926149999,3.2025976638499998,5.440975433200001
1.7176716916674898e+18,6.826052650299999,2.2355112304499998,6.4600637284
1.7176716918674898e+18,7.3216645206,1.5655120010799999,6.810035957250001
1.7176716920674898e+18,-2.0396959304899998,1.607649375885,9.52571866685
1.7176716922674898e+18,-2.3883808363499996,3.6517237013999995,8.82242118065
1.7176716924674898e+18,-1.235949829069,2.28981829835,8.23734784695
1.7176716926674898e+18,-0.266154029866,2.57513248435,7.613205756800001
1.7176716928674898e+18,-1.0328372039635003,0.030252090467500065,10.02175714865
1.7176716930674898e+18,-1.4104195175257,-0.888350166275,12.224314408000001
1.7176716932674898e+18,-2.2846091309749994,-0.987324348355,11.890710641
1.7176716934674898e+18,-0.2842888183105001,0.29904064179650003,7.766344802850002
1.7176716936674898e+18,-0.17613871766650002,1.1368633804069999,6.514932128299999
1.7176716938674898e+18,-0.13897849276899998,-0.35820510864780003,12.908144875
1.7176716940674898e+18,-0.5735098800649999,-1.274906318505,12.1631141735
1.7176716942674898e+18,-0.15157479859200002,0.7350764007025,6.295802810850001
1.7176716944674898e+18,-0.20428019714550003,0.43325903318000003,8.0426776662
1.7176716946674898e+18,-1.230044608915,-0.566002990725,13.608912619999998
1.7176716948674898e+18,-0.9034462737894999,-0.311689338691,11.112231994799998
1.7176716950674898e+18,-0.23792273709200001,1.1855496368245002,4.794320159899999
1.7176716952674898e+18,-0.4316498794435001,0.373548202543,10.701560989049998
1.7176716954674898e+18,0.25899890900055,-0.86465444185,13.288990402000001
1.7176716956674898e+18,-0.34324372100899997,0.03974235536149999,9.3091041181
1.7176716958674898e+18,-0.10557545470599998,0.760568389893,5.3450998077500005
1.7176716960674898e+18,-0.390590263386,-0.19201320646699999,12.696732011299998
1.7176716962674898e+18,-0.1574575653105,-1.0845022659749999,11.9194508745
1.7176716964674898e+18,-0.026247917177499986,-0.21168978882,9.681013230200001
1.7176716966674898e+18,0.3633169784495,1.087241569485,9.66025140335
1.7176716968674898e+18,0.3090922394050001,1.1957209854300002,9.766545364250002
1.7176716970674898e+18,0.05485343170679996,0.9429491272435001,6.589028045649999
1.7176716972674898e+18,4.4223661423000005,2.5692272644100003,10.296548217799998
1.7176716974674898e+18,3.1343470917999996,4.671253578149999,7.464512466250001
1.7176716976674898e+18,0.6218593368950001,6.854396209800001,7.8134293900000005
1.7176716978674898e+18,0.7989336090065,7.6327326507999995,5.9299037017
1.7176716980674898e+18,-0.17913997651749997,9.23987308515,5.2760184632
1.7176716982674898e+18,0.9218280488049999,11.712004761,3.576729652350001
1.7176716984674898e+18,-4.457610351393,4.5379258347,-1.599626060596
1.7176716986674898e+18,-15.1503846135,5.409548286400001,-3.3795072785554994
1.7176716988674898e+18,-7.216882415700001,2.74937763975,7.620592895600001
1.7176716990674898e+18,0.7766599274100001,3.79619577033,8.366237320249999
1.7176716992674898e+18,-1.8070796583429996,6.1736867523,7.0427270737
1.7176716994674898e+18,1.2854668579700002,5.95767844395,6.786003433099999
1.7176716996674898e+18,2.00001345066,6.7474735565,6.571738998399999
1.7176716998674898e+18,1.72072797775,6.721566181312499,6.9001541804999995
1.7176717000674898e+18,,,
