Timestamps,Gyro_X,Gyro_Y,Gyro_Z
1.717671559873734e+18,0.033416929875714284,0.1436720032843524,-0.04123399871210952
1.717671560073734e+18,0.09294139798500001,0.55459866572955,-0.11241184033890002
1.717671560273734e+18,0.35066419020499995,1.786641654365,-0.7164298892099998
1.717671560473734e+18,1.447818404505,0.53547595739,-0.5434584803850001
1.717671560673734e+18,1.7657420397999999,1.686726805575,0.2022352685744
1.717671560873734e+18,1.201475861805,1.5676401496499999,0.08375894976900003
1.717671561073734e+18,1.528080916295,0.882544864685,1.67359078825
1.717671561273734e+18,1.842675969075,3.3609980971,1.7878496974000004
1.717671561473734e+18,0.7819438449749999,4.088549232535,-1.287717087642
1.717671561673734e+18,1.3862648934,-1.575112954615,-2.4650012374
1.717671561873734e+18,1.8214633613450002,-1.7497499406800003,-0.15924739316999995
1.717671562073734e+18,0.31521633811000005,-1.0787778884025,0.38540608326049997
1.717671562273734e+18,-0.8527938954209999,-1.2994510949299998,1.1973987877099999
1.717671562473734e+18,-2.0519326807,-0.20802534105788503,1.555902120435
1.717671562673734e+18,0.056918052229999974,-0.1987850937615,0.3478533082105
1.717671562873734e+18,-0.18044186105560497,-0.026034490533499998,-0.17963811973925
1.717671563073734e+18,-0.3036096638364,0.2312582592503,0.187776406384
1.717671563273734e+18,-0.0845858724283,0.09732528934269999,0.11017801393355
1.717671563473734e+18,-0.05241105386911299,0.32004741280000004,0.04493447786325
1.717671563673734e+18,-0.18837659142745,1.08565115628,-0.11370165272700002
1.717671563873734e+18,-0.286574571575,1.17280703785,0.057839079200999996
1.717671564073734e+18,-0.281476526705,0.8100617140449999,0.37511040121500006
1.717671564273734e+18,-0.8278385549849998,0.50572933108,0.31153475232999994
1.717671564473734e+18,-1.4172041058,0.5016178436435001,-0.269039395262
1.717671564673734e+18,-1.2787335694500002,0.6451283998750001,-0.026454148116349996
1.717671564873734e+18,-1.12687763575,0.578914484375,-0.0670931408165
1.717671565073734e+18,-0.4985132643497501,0.6040754660900001,0.74611922049
1.717671565273734e+18,-0.5426989811627501,0.40150796179100007,0.18668883265350003
1.717671565473734e+18,-0.2305243057175,-1.22207182647,-0.31759118250150004
1.717671565673734e+18,-0.4936745867100001,0.014468432413299995,0.0805483964927
1.717671565873734e+18,-0.4262453414499999,0.14496095543299997,-0.072098677033445
1.717671566073734e+18,-0.22378695639399998,-0.0708426671599,0.0656125375749
1.717671566273734e+18,0.2474145045042,-0.10983273144349999,0.0730708024534
1.717671566473734e+18,0.7155475988950001,-0.1021723838565,0.09749916738812
1.717671566673734e+18,-0.27790403869200003,-0.053267329930250004,0.018211770248850002
1.717671566873734e+18,-0.2583573723195,0.17423432208,-0.018464190717349997
1.717671567073734e+18,0.069046444181,-0.40286486178349995,-0.13198825260999997
1.717671567273734e+18,0.415689526505,-0.23185559450934995,-0.27294561900000003
1.717671567473734e+18,-0.30255696475899996,0.151612637679,0.0858990576836
1.717671567673734e+18,-0.34788818507499997,-0.07727135279899999,0.07155040427595002
1.717671567873734e+18,0.12130152281935,0.026011649564450012,-0.07394436207890001
1.717671568073734e+18,0.67464067489,-0.004181948063104993,-0.09679093408199999
1.717671568273734e+18,-0.6188776098625,0.09967340800945002,0.010503813858150007
1.717671568473734e+18,-0.46867317259499985,-0.0325799430727,0.020867932995095
1.717671568673734e+18,0.2418841571494,0.097701907812,0.1200403044055
1.717671568873734e+18,0.7267083607759999,0.03214316638365,0.21185869836049998
1.717671569073734e+18,-0.40823143954050006,0.05764503302,0.016549371213528
1.717671569273734e+18,-0.33949316367500004,0.23422500443605002,0.0784745011485
1.717671569473734e+18,0.148698612673,-0.1892466958585,-0.03944927851665
1.717671569673734e+18,0.5396048262750001,-0.84470239951,-0.033908329341499996
1.717671569873734e+18,0.41886880844999996,-0.830879816415,-0.37804816962000004
1.717671570073734e+18,-0.020084093235949996,-1.710367119245,-0.42536486685
1.717671570273734e+18,-0.09790541705852382,-2.728168266142857,-0.5565036871414286
1.717671570473734e+18,-0.054815050963,-1.55294995597,0.1722142912025
1.717671570673734e+18,-0.19370011137555,-1.73117054696,-0.20365139821099998
1.717671570873734e+18,0.1610464313082,-2.350531888050001,-0.19012214981685
1.717671571073734e+18,3.0690459905499994,-2.19943530555,0.4971736021465
1.717671571273734e+18,-0.661827857237,-0.8109177628660001,0.8560747694444999
1.717671571473734e+18,-0.31382772326,-0.5031727977150001,0.08908001072649999
1.717671571673734e+18,-0.35087082611,-0.16367056258200002,-0.03564464297159999
1.717671571873734e+18,-0.0751796952472,-0.0018278763386,-0.003582575665814997
1.717671572073734e+18,0.063670331144,-0.016992738863199998,-0.001832388479749998
1.717671572273734e+18,0.07897436330600001,-0.16747859418265004,-0.23255844125400005
1.717671572473734e+18,0.0374405317709,-0.032179695270700005,-0.05708675848079999
1.717671572673734e+18,0.0004004408492999996,-0.095971479414,-0.1466418008405
1.717671572873734e+18,0.060303774754099995,-0.09344182114905,-0.9946516707
1.717671573073734e+18,-0.00387056581895,-0.006288629553299998,-0.1789357429536
1.717671573273734e+18,-0.03449792504795,0.003318319239950003,-0.015410563442800004
1.717671573473734e+18,-0.516752539774,0.006038985497500001,0.0297217264695
1.717671573673734e+18,0.016958893563,0.023200319031649996,-0.07101664468669999
1.717671573873734e+18,-0.052334105726,-0.1574470925155,-0.1719776462755
1.717671574073734e+18,-0.10163547712634999,-0.16327547449399998,-0.09038467025
1.717671574273734e+18,-0.4516727991999999,0.27625925550249997,-0.21493155378800002
1.717671574473734e+18,-0.3561343575335,0.004090059468850012,-0.01919988932715001
1.717671574673734e+18,0.12760673407749998,0.0006536422350449998,0.06474094454549
1.717671574873734e+18,0.23171854103450001,0.020843887607,0.034578956913799995
1.717671575073734e+18,-0.09947740283933001,-0.001974297011849999,0.06989040509789998
1.717671575273734e+18,-0.0596562350186,-0.019990073190750003,-0.0185335137653
1.717671575473734e+18,-0.042190475017000004,0.03727906078599999,-0.0033289624666349993
1.717671575673734e+18,0.0021417285436999994,0.040686775464499995,0.0056891370449
1.717671575873734e+18,0.007619740045330001,0.0025689324305855996,0.0034902231592599995
1.717671576073734e+18,0.010543061373700001,-0.0031929360761124995,-0.0005360307870387001
1.717671576273734e+18,0.015542097901550003,-0.0006772097782100001,0.00032561468541400003
1.717671576473734e+18,0.015864677681000004,-0.007840180956099998,-0.001354851730935
1.717671576673734e+18,0.020827339963500002,-0.006800653506200001,-0.0019591035730299996
1.717671576873734e+18,0.0268842071997,-0.010350978281799999,0.0008118524973149998
1.717671577073734e+18,0.021030245768049995,0.0008611026918865,0.00591190472491
1.717671577273734e+18,0.0421301618215,0.0030350570683649997,-0.00036934058875615
1.717671577473734e+18,-0.006698658527250001,0.00880077526675,-0.001713965606132
1.717671577673734e+18,-0.013798760297550002,-0.001369997311874,0.0006804897159195
1.717671577873734e+18,0.0066587096086860005,-0.00012261419332500013,-0.000291996321215
1.717671578073734e+18,0.013478961028399999,-0.000394272932264,-0.0013036132091449998
1.717671578273734e+18,0.011599451396600001,-0.0010508730484175002,0.0011343669901495
1.717671578473734e+18,0.071591422145,0.002161613048465,-0.0037936974316849998
1.717671578673734e+18,0.08565900409935001,0.0019527239493265004,-0.004662755568055
1.717671578873734e+18,0.018916997733,0.000772199622475,0.001101209031155
1.717671579073734e+18,0.05448113177,0.00981288845635,0.004175778298233
1.717671579273734e+18,0.00804219053813,0.0013254670891845,0.0015170307597835
1.717671579473734e+18,0.010214746674449998,-1.3820471953500011e-05,-0.00033463339209000004
1.717671579673734e+18,0.0036306908818050003,0.0018681812099599997,0.00038417706381399996
1.717671579873734e+18,0.004583296354208,-0.000696684647085,-0.0009107167134155001
1.717671580073734e+18,0.0036691962508514997,0.0013147135671900002,-0.000983120239065
1.717671580273734e+18,0.005687919328740002,0.0012896037893829998,8.3986349652e-05
1.717671580473734e+18,0.00463716676405,0.0010612927493394999,-0.0011572766583185
1.717671580673734e+18,0.0031521081458249995,0.000615876191315,0.0002834058657712001
1.717671580873734e+18,-0.0011877180963238098,-0.001317155597295238,-0.0012816514798166666
1.717671581073734e+18,0.005298828170349999,0.0014085939386800001,0.0007099443347250002
1.717671581273734e+18,0.0027745523491499997,-0.000177759607325,0.0005432548700485
1.717671581473734e+18,-0.00296240239403,-0.001551618758855,-0.001227561844301
1.717671581673734e+18,0.010873042535624999,-0.0018094346975759997,-0.0006787794351682001
1.717671581873734e+18,0.009005166846195001,0.000994902872495,0.00010325401087649998
1.717671582073734e+18,0.013915096875330001,-0.0032273871882600004,-0.001864469458804
1.717671582273734e+18,0.0005218192704749999,0.001312845176965,-2.8091983424500016e-05
1.717671582473734e+18,-0.005588814255379999,0.00160667422464,0.00016300312710905
1.717671582673734e+18,-0.00140913390789,-0.000751139473925,-0.001163194607885
1.717671582873734e+18,0.0010655156337100002,0.00089079972822,-0.00019754549718750003
1.717671583073734e+18,-0.0012741024139899999,-0.0007527337060494999,-0.000278641167113
1.717671583273734e+18,0.0036289388779700005,4.793251867499998e-05,-0.0003361241134835
1.717671583473734e+18,-0.0005818402860374999,-0.00012861526334999998,-0.0006970739108675
1.717671583673734e+18,-0.0006357552018435,-0.000749476772032,-0.00042576250847250005
1.717671583873734e+18,0.002063949685595,0.000343137542976,-0.000189411814884
1.717671584073734e+18,0.0016456823329,-0.00010699523845100001,-0.0007277406286305
1.717671584273734e+18,0.0033229593420499998,-0.0002603011788205001,-0.00022279322143200003
1.717671584473734e+18,0.0024169754586750004,2.3833476750000385e-06,0.0002025235444475
1.717671584673734e+18,-0.00028042015625000016,-0.0012488468084515003,-0.00063933382637
1.717671584873734e+18,-0.003510419011225,-0.0016206966945449999,-0.0012433006601279997
1.717671585073734e+18,-0.004398319253061499,0.00559776921295,0.00455283328213
1.717671585273734e+18,0.003876311739520001,-0.00259405699319,-0.0013868400826749997
1.717671585473734e+18,0.00899540665612,-0.0045957494175,0.007317205431234999
1.717671585673734e+18,0.0124214606828,-0.0011482601577965002,0.000564858154408
1.717671585873734e+18,0.00029441919172200007,-0.0001359877526125001,-0.0032121172290700004
1.717671586073734e+18,-0.004344936961266001,0.00155638437137,-7.008822286750002e-05
1.717671586273734e+18,-0.004166648711199999,-0.001830222952425,-0.002680991834471
1.717671586473734e+18,0.0021712826444849997,0.002830153750135,0.000698415777915
1.717671586673734e+18,-0.00356035861165,0.0035927014250510003,0.0015908079105200004
1.717671586873734e+18,0.0025979615743150003,-0.00426261773093,-0.0023341729188649995
1.717671587073734e+18,0.006401380081855,0.008744398387799997,-0.0013546387140535
1.717671587273734e+18,-0.007270438200550002,0.0009553794108649999,0.007435541325649999
1.717671587473734e+18,-1.355446877500014e-05,-0.008695872279250002,-0.002451600605895
1.717671587673734e+18,-0.0085297586971715,0.005535707774100001,-0.00027809373570950003
1.717671587873734e+18,0.006413435935950002,-2.7564802428000083e-05,0.0016941072361049997
1.717671588073734e+18,0.0037170289549700005,-0.0016075689811054998,-0.0008571639075260001
1.717671588273734e+18,0.00102432083804,0.00113005840683,0.0005775066441384999
1.717671588473734e+18,0.0023898971965999995,-0.00046591349525999993,-0.00022781839354550003
1.717671588673734e+18,-0.00057979987467,-0.0003531642317255,0.0026942575116645
1.717671588873734e+18,0.0097626809969,-0.00161805335082,0.0012340168992469999
1.717671589073734e+18,-0.0031951577166649996,-0.006896628474449998,0.0051371695004000005
1.717671589273734e+18,0.0012715067951500007,-0.010785727552799999,-0.007055927708
1.717671589473734e+18,0.024325789347899997,0.00361337170555,0.0084489769769
1.717671589673734e+18,-0.026048570266000003,0.004877073562135001,0.006949107593250001
1.717671589873734e+18,-0.037899985164000005,-0.01352513935405,-3.5839364939999844e-05
1.717671590073734e+18,-0.012853602855650001,0.0015192544095,0.00658660733605
1.717671590273734e+18,0.00017642567409000015,0.006988905719975,1.951365263899999e-05
1.717671590473734e+18,0.000818584847705,-0.0035083308815949997,-0.00027205721125050003
1.717671590673734e+18,0.002765735890665,0.00283880953216,-0.0003962483781900001
1.717671590873734e+18,0.004481681541249999,0.000657555239731,3.6076793879700034e-05
1.717671591073734e+18,0.012505312495399998,0.0005368886748999999,-0.0017845103343000004
1.717671591273734e+18,0.014617341060352855,0.005376080594380951,0.00032150818002285716
1.717671591473734e+18,0.018615946079549996,-0.00126941999204,-0.0006900650972875
1.717671591673734e+18,0.0181067095833,0.0091304098494,-0.000793991592935
1.717671591873734e+18,0.015658022905999998,0.002827357512445,-0.0006349842762419999
1.717671592073734e+18,0.008582762954449999,0.005231791397139999,-0.0001391230442139
1.717671592273734e+18,-0.0021437603980650004,-0.0020862991572,-0.001087287988028
1.717671592473734e+18,0.0027025848277735,0.0006729560030926499,-0.0003592177062104999
1.717671592673734e+18,0.0009513950910159999,-0.00222532568743,-0.001125511527115
1.717671592873734e+18,0.002360243780915,-0.000173276365944,-0.000231019995492
1.717671593073734e+18,-0.006651547900499999,0.0003072073042670002,-0.0011394707893765
1.717671593273734e+18,-0.00010847874168000019,-0.0020359976450249995,-0.0011475647566300002
1.717671593473734e+18,0.001955717418049999,0.0015446145086649996,-0.00030424273571700005
1.717671593673734e+18,0.0032511624972654993,-0.0017705847393110004,-0.000682798103635
1.717671593873734e+18,0.003364789741805,0.000646705232795,-0.0015149307552549999
1.717671594073734e+18,-0.004229472298655,-0.00041024257658499997,0.00017256971918500007
1.717671594273734e+18,0.004466308385344999,0.00349536330903,0.0025010588404
1.717671594473734e+18,0.0075596090287100015,-6.469373549998492e-07,-0.0016485085943049999
1.717671594673734e+18,-0.0016795115662299998,-0.00375073977645,0.0008164464030733001
1.717671594873734e+18,0.00752056983805,0.0024944910895999995,-0.003420837002299999
1.717671595073734e+18,-0.002491749008005,-0.001157462462991,-0.0025803627677350007
1.717671595273734e+18,0.0027475161475350005,-0.0004270997190005001,-0.00016772338994049975
1.717671595473734e+18,0.00012422497374999994,0.0007577068987045,0.00039696266748449996
1.717671595673734e+18,0.0017485302870299993,0.00011620221776174993,8.249455129500001e-05
1.717671595873734e+18,0.0006775153335137499,-0.000483841553791,-0.00072201415315
1.717671596073734e+18,0.005267551599645,0.0007546855370059999,7.687936881550003e-05
1.717671596273734e+18,0.01224126361725,0.00207465175766,0.0002881231659250001
1.717671596473734e+18,0.015943725570199997,-0.00027444727022000006,0.0065918079233225
1.717671596673734e+18,-0.0012961497767099998,-0.004090078477965,-0.0063295169383000005
1.717671596873734e+18,-0.003591351548485,0.00155122766135,0.002065187983653
1.717671597073734e+18,0.013422422659,0.00131229971308,7.422217171999999e-05
1.717671597273734e+18,-0.007029046350740001,-9.880490823999982e-05,0.00042786287377499994
1.717671597473734e+18,-0.010899182769695002,-0.0011476195708340002,-0.00133234509266
1.717671597673734e+18,-0.0053241370713550005,-0.0005783376225695,-0.00048519719854545003
1.717671597873734e+18,0.00024372451044000001,0.0006511085375832,-0.00030338490615450004
1.717671598073734e+18,0.00014975320085000007,-0.00072531765334,-1.865678933050002e-05
1.717671598273734e+18,0.005762689932800001,-0.000233879161495,-0.0011419094808734999
1.717671598473734e+18,-0.003986722394800001,-1.4046579670000045e-05,0.0002922815620435
1.717671598673734e+18,0.00344955760505,-0.00017486431171999996,-0.0002916044787999999
1.717671598873734e+18,0.009494788234429001,0.0021153543726795,4.842691152500019e-06
1.717671599073734e+18,0.009299073275899999,-0.0003344853932195,3.6767375375e-05
1.717671599273734e+18,0.0082105410048,6.968589732749996e-05,4.7341455049999995e-06
1.717671599473734e+18,-0.0061282250444400005,-0.0010129535628700002,-0.0006672741030095
1.717671599673734e+18,0.0037065164183045,-0.003893167985349999,-0.0004033593867689999
1.717671599873734e+18,-0.003930753608949999,5.3501955762500015e-05,-0.0005242237413745002
1.717671600073734e+18,-0.008037077658275,-0.001655890961385,-0.0004900170490094999
1.717671600273734e+18,-0.001795334427209,0.001046673627603,-9.18081613125e-05
1.717671600473734e+18,-0.006896803435099999,-0.00048097597903050003,-8.358895431500002e-05
1.717671600673734e+18,-0.00329735924043,-0.001440724945765,-0.00043136118331250006
1.717671600873734e+18,-0.004824276815758,0.0026270444736684996,0.0014539275551179998
1.717671601073734e+18,-0.0025520970579000005,-0.00021106411591100002,-0.0005678603193190001
1.717671601273734e+18,0.004478219593915001,-0.00076420604017405,-0.0006916175945549999
1.717671601473734e+18,0.00742416228143,0.0012538280395850002,0.000504959298989
1.717671601673734e+18,0.00916727948272381,-0.0019835762712904757,-0.0007616749055514285
1.717671601873734e+18,0.008486242126650003,-0.0011634730500943498,-9.064466575049998e-05
1.717671602073734e+18,0.00461202558375,0.0005760105617987,1.8954009308499987e-05
1.717671602273734e+18,-0.0025925714405360006,-0.0010105317575099999,0.0002766464894905001
1.717671602473734e+18,-0.0059602430322,-0.0004975609772154499,-0.00038560562539249996
1.717671602673734e+18,-0.008041642746,0.0007429104822682,0.0004132970062155
1.717671602873734e+18,-0.005340048926925,0.0009768699354465002,-0.0005633173394295002
1.717671603073734e+18,0.0001939251903549999,-0.0013081895594550005,-0.00017711049297000002
1.717671603273734e+18,-0.0002121597295425,-0.0005461901251445,-0.00014614497775649994
1.717671603473734e+18,0.000704359565865,0.00031287042066,-0.00035076898054499996
1.717671603673734e+18,0.006014909758,0.0012311482045519997,0.00041025715175500003
1.717671603873734e+18,0.01069238432595,-0.0028571694275700004,-0.00029985036236349993
1.717671604073734e+18,0.0013184368024800003,-5.894623457499996e-05,0.0005905446887699999
1.717671604273734e+18,0.0014396018000550003,0.0013022857718885002,-0.0004840687674195
1.717671604473734e+18,-0.006721983849635,-0.0021779451111249995,-0.0008755153277859998
1.717671604673734e+18,-0.00485869632095,0.002511887159255,0.000177536834944
1.717671604873734e+18,-0.00462886865703369,-0.0024065813864999996,-0.001295795955285
1.717671605073734e+18,0.0006221608841220001,0.00017833807505099995,-0.000141517235844
1.717671605273734e+18,-0.00512600855445,0.0004204468510934999,0.00020674924595100007
1.717671605473734e+18,-0.004685602593205,0.00287156283741,0.00020817219052000004
1.717671605673734e+18,-0.0012431806069999997,-0.0030364327831439997,-0.00031162343225055
1.717671605873734e+18,-0.00019110861464099988,0.0036053506658049995,0.001388856500865
1.717671606073734e+18,0.006062695604900001,-0.0012884542229150001,-0.00050712391392
1.717671606273734e+18,0.0053964176332,5.788494608550009e-05,8.767807739250002e-05
1.717671606473734e+18,-0.004437592858190001,-0.0016560363700349999,0.00017250614471299997
1.717671606673734e+18,0.003026017779595,-0.0007567493885259997,-0.0007947763311650002
1.717671606873734e+18,0.0009693532017719999,0.001667593634935,-0.000227393920058
1.717671607073734e+18,-0.0015241312794610003,-0.00047702025042034503,-0.0006040837382685
1.717671607273734e+18,-0.004597305413015,-0.000988003943328,-0.00024481492583400006
1.717671607473734e+18,-0.004366532596440401,0.00079308715653,-0.00013437090086500006
1.717671607673734e+18,-0.0008192463778149998,-0.00016958630296850003,-0.0004549488541675002
1.717671607873734e+18,0.0020428380580439997,0.0013873710937249996,0.000418428634257
1.717671608073734e+18,0.0010206134757300002,-0.00067184593639,-4.16629481500005e-06
1.717671608273734e+18,0.0038900331592750005,-0.0012805879347900007,-0.00398607760471
1.717671608473734e+18,0.010087435483125,0.0038733110530855008,-0.007837967981865002
1.717671608673734e+18,0.012406174140550003,0.005305660416795,0.0035103612111900004
1.717671608873734e+18,0.003956296131885,-0.0023295408581350007,0.000462135067156
1.717671609073734e+18,0.00017078671396499994,-0.000319287111091,-0.0008842448703
1.717671609273734e+18,-0.0019152780529000002,0.001496875117281,0.00167436853511
1.717671609473734e+18,-0.0038431716151000003,-0.0025255338812999995,-0.00015526188068649998
1.717671609673734e+18,-0.0065890640955255,-0.0013112798681599997,-0.0013234071783220001
1.717671609873734e+18,-0.019464784094050003,-0.002693662879805,-0.00123339901904125
1.717671610073734e+18,-0.01035581128615,-0.00252892391282,0.002513432863605
1.717671610273734e+18,-0.0080333544174845,-0.0012401451764425002,-0.0008988175890380001
1.717671610473734e+18,-0.0034346550352049995,0.00042801246741499996,0.00012698555957500003
1.717671610673734e+18,-0.0061479903056450005,-0.0036583318202,0.00282097780729
1.717671610873734e+18,-0.000967716111325,-0.000338954495995,-0.0013485842209950002
1.717671611073734e+18,0.0022557671760014995,0.00243709694465,-0.00020711118119000005
1.717671611273734e+18,-0.003512800333965,-0.0030448890465450003,0.004443925141770001
1.717671611473734e+18,-0.006101920711715,0.004654212878085,-0.000886565569085
1.717671611673734e+18,-0.006511319580655,-0.00243383209453,0.000510379136555
1.717671611873734e+18,-0.004125475964975,-0.001242023217433,0.0036960389579495006
1.717671612073734e+18,0.0009680499210000003,0.0006567598088350001,0.00043840160353875006
1.717671612273734e+18,0.001264620583395238,0.0005478924860680952,0.00019296116771904765
1.717671612473734e+18,0.004227060452325,0.0017409503459275,0.00024980893938149996
1.717671612673734e+18,0.00019178140200000005,-0.000650329381528,-0.00015076851118600001
1.717671612873734e+18,0.001375189714537,0.0006898673425065,-0.00029359227041950007
1.717671613073734e+18,0.00045888859312,0.001583663845686,0.00018234483436300005
1.717671613273734e+18,-0.002742288634185,0.001436451094956,-0.000513652921722
1.717671613473734e+18,-0.00657330317205,-0.0021719276961685006,-0.00029019627253
1.717671613673734e+18,0.0019752771127100003,0.00112954443317,0.00016185443971900002
1.717671613873734e+18,-0.0029545165251049993,-0.0009665771329385,3.8334180122999994e-05
1.717671614073734e+18,-0.000752547103951,-0.001399172860001,-0.0004124147118935
1.717671614273734e+18,-0.0038285003276399996,-0.000186578172745,-0.0005632728105704999
1.717671614473734e+18,0.00460859993475,0.00142817015296,0.0002096808108765
1.717671614673734e+18,0.0036950392765145003,-0.0008902310859350001,0.0001533325703045
1.717671614873734e+18,0.002258344262355,0.0013143980933950001,0.000478876737155
1.717671615073734e+18,0.0007277551689270001,-0.00018510391242450002,-0.00029661806767225
1.717671615273734e+18,0.00013534196182000006,-0.00012934030959,-0.00037119868209650004
1.717671615473734e+18,-0.004008176806372101,0.0007818544167424999,0.00025021044423750003
1.717671615673734e+18,-0.0010142775368550002,0.000451370992258,0.00023092511690200003
1.717671615873734e+18,-0.010058384365765,-0.004128654557349999,0.000671561463937
1.717671616073734e+18,-0.002704594912985,-0.0008557075110750001,0.00016021354816999998
1.717671616273734e+18,0.001350440306089,0.0006672938762735,-8.68696370065e-05
1.717671616473734e+18,0.0009308289270868349,0.001225074334063,0.0002160372969065
1.717671616673734e+18,0.0010729471455170002,-0.000788103806615,-0.0002062287938165
1.717671616873734e+18,0.0005654466105659999,0.00053664773585,0.0002312956668675
1.717671617073734e+18,0.002768898510885,8.852719913010002e-05,-0.00010650377950499998
1.717671617273734e+18,0.00265558451639,0.0008421926119100001,-0.000180846673903
1.717671617473734e+18,0.0031548102152,-0.00014503665155250002,0.0003785629290925001
1.717671617673734e+18,0.0022269664215450002,0.00019013473648499997,0.0002268310927425
1.717671617873734e+18,0.001719097292505,9.055240081349997e-05,-0.0002910745563335
1.717671618073734e+18,-0.00234494812315,-0.00023295973664205,0.000228026113446
1.717671618273734e+18,-0.0025020828704752003,-0.0003732871147835,-3.2932299610500034e-05
1.717671618473734e+18,-0.00246290579684,-0.00043698135994500004,-0.00023173074587399997
1.717671618673734e+18,-0.001500219211473,0.00016383056644300002,-4.2455596805000024e-05
1.717671618873734e+18,-0.00224586378326,-0.000736098329065,-0.00030564769402650004
1.717671619073734e+18,-0.00067706295525,0.00021094587863180005,-7.801944157850004e-05
1.717671619273734e+18,-0.0004772142506499999,-0.0014209573274299998,0.0001397111976715
1.717671619473734e+18,-0.0007790933013352649,0.00020973195208999997,0.0002633859170065
1.717671619673734e+18,-0.0004079074948225,-0.00024927282357599997,-0.00090156800587
1.717671619873734e+18,0.0027617944986450004,0.001653094554855,0.0006527798832810001
1.717671620073734e+18,0.001513491035505,-0.00033102340526999996,-7.248269388799998e-05
1.717671620273734e+18,0.0022591012180765,-0.0012562060787395,-0.00038094058395149997
1.717671620473734e+18,0.004241367673889549,-0.00024124721541099995,0.000612176087447
1.717671620673734e+18,-0.0018894161680049998,-0.0016864989301415,-0.000255585537495
1.717671620873734e+18,-0.000823977519798,-0.00030825805735999994,-0.00033032591456125
1.717671621073734e+18,-0.0018844264559125003,-0.00021300179647949996,2.7934124228499968e-05
1.717671621273734e+18,-0.00220705419786,-0.0004499466624219999,-0.0003828554006769999
1.717671621473734e+18,-0.0036457129754834004,-0.0005260310135484999,-0.00030375189384249996
1.717671621673734e+18,-0.0020294730783850003,0.00018987912332639502,-8.002447416500017e-06
1.717671621873734e+18,-0.0009449253207445002,0.00019100854407499998,-6.606661481299999e-05
1.717671622073734e+18,-0.0006290969205779999,0.0004886229173394999,-0.00019973373854000002
1.717671622273734e+18,-0.0016216991003250001,0.000304791721215,-0.00016458273169149998
1.717671622473734e+18,-0.0015627582091649998,0.000728700979425,-0.0003041779389100001
1.717671622673734e+18,0.001212783313114762,-0.0005002760140828572,-0.00042151416919047625
1.717671622873734e+18,0.0029025165713,-0.000315260392416,0.000299966655404
1.717671623073734e+18,0.00225568021419,-0.001224934303945,5.767937982750002e-05
1.717671623273734e+18,0.0040059394319,-0.0002959122066035,-0.0002520837704682
1.717671623473734e+18,0.00053723353192,-0.0008349008276379997,-2.8703431570000002e-05
1.717671623673734e+18,-0.0020903790368999994,0.0001330497209095,9.173129797619997e-05
1.717671623873734e+18,-0.0019588220746750004,0.0012034295243149998,-0.0002356421318385
1.717671624073734e+18,-0.0009294949471299998,-0.0007975265558169999,-4.453293517150002e-05
1.717671624273734e+18,0.0018199450103445001,0.00026140428966535,-0.00044498462228699997
1.717671624473734e+18,-0.005391832255,-0.00215815955864,0.0019197176443305
1.717671624673734e+18,-0.0018976125520000005,-0.00433461267994,0.00171382401026
1.717671624873734e+18,-0.0164824886703,-0.021141285705550003,-0.004893278446750001
1.717671625073734e+18,0.13803366078600002,0.02134660459055,-0.0417928786025
1.717671625273734e+18,-0.36432891190000005,-0.12129533738805001,-0.005298280446149999
1.717671625473734e+18,-0.25491804030149995,0.02641738383247,0.18563750147085
1.717671625673734e+18,-0.6356956891895,0.0675335746873,-0.126848174447
1.717671625873734e+18,-0.77219457848,0.32066398597499995,-0.1142040912923
1.717671626073734e+18,-0.691769403225,0.9170869603249999,-0.033121256155
1.717671626273734e+18,-0.5013037338799999,0.5657691284949998,0.35431544408000004
1.717671626473734e+18,-0.32599035948000005,0.7540437847100001,0.29793034494000004
1.717671626673734e+18,-0.195230395357,1.090593460255,0.016820401467999985
1.717671626873734e+18,-0.12492407882335,1.1764644801,0.046713593418499996
1.717671627073734e+18,-0.1268274338905,0.730766382835,0.19402722343499998
1.717671627273734e+18,-0.18173585906,0.6781871587,0.389651484785
1.717671627473734e+18,-0.09190273155249998,1.3839246810299999,0.390982642775
1.717671627673734e+18,-0.178104904573,1.53542762385,0.788376946695
1.717671627873734e+18,-0.5395875811699999,1.3926273405,0.41465224028
1.717671628073734e+18,-0.433459750946,1.4257076442499999,0.638313484185
1.717671628273734e+18,0.495520925515,1.0841843515549998,0.10149241834849995
1.717671628473734e+18,0.1780478376905,1.1942657143200002,-0.0207873401375
1.717671628673734e+18,-0.27439830377050006,0.6890369862300002,0.22091424143825003
1.717671628873734e+18,-0.775292405485,-0.133769009828,0.0228921659734
1.717671629073734e+18,-0.41544234231,-0.25041702800119997,-0.14428907427600002
1.717671629273734e+18,-0.250399328769,0.0118430572921,-0.15765250792824997
1.717671629473734e+18,0.327501679958,-0.04659150075,0.11007441415404999
1.717671629673734e+18,0.7900746256200001,-0.3946318022805,0.027735272797750003
1.717671629873734e+18,-0.22074204702350003,0.07722580069415,-0.06489002630179999
1.717671630073734e+18,-0.5591876491900001,0.06992777954174999,0.042903487514499995
1.717671630273734e+18,-0.16170437046750002,0.03458145368705,0.0466545334923
1.717671630473734e+18,0.47044833749000003,0.05693086513155001,0.08262203755185
1.717671630673734e+18,0.376453178098,-0.35011108778649996,-0.19712614751914498
1.717671630873734e+18,-0.583496971425,0.0820227995202,0.143491919224
1.717671631073734e+18,-0.2080412024878,0.16031065732150002,0.1040010387085
1.717671631273734e+18,0.45908346286999996,0.062299681030250006,0.014508400682605
1.717671631473734e+18,0.16086750409495,0.17798936615044997,0.028271141705799994
1.717671631673734e+18,-0.45109596699499993,-0.10834539509370003,-0.0252962267611115
1.717671631873734e+18,-0.1130669382405,-0.13724871277999998,-0.16714360657724997
1.717671632073734e+18,0.5020474761699999,-0.06339620329765,-0.0467791503999
1.717671632273734e+18,0.20081584882749998,0.0522733390264,-0.021591852153570002
1.717671632473734e+18,-0.46094717010999997,-0.022931128045099995,0.03436347385645
1.717671632673734e+18,-0.07408497075329998,-0.056118895395099996,0.057334492381250005
1.717671632873734e+18,0.3217290806596,0.03385004209255,0.06192951449895
1.717671633073734e+18,0.5675434498571429,-0.23787349144190476,-0.09018266363566667
1.717671633273734e+18,0.353904092315,-0.256906149343,-0.15551047185130001
1.717671633473734e+18,0.22011255178839995,-0.635124717665,-0.331942589575
1.717671633673734e+18,0.06932866190645001,-1.1465255767899998,-0.467618547385
1.717671633873734e+18,0.1273910329715,-1.1930439709999998,-0.30750873535999995
1.717671634073734e+18,-0.0880527120015,-1.4479185164000001,-0.07884943931949998
1.717671634273734e+18,-0.02167160157550001,-1.2084037661,-0.23989621633200003
1.717671634473734e+18,0.8470037729350001,-1.9025277495000001,-0.11752060925900001
1.717671634673734e+18,0.5935622751649998,-2.3942847371,-0.0793222712275
1.717671634873734e+18,0.62932176441,-1.624645903735,0.9861873929574999
1.717671635073734e+18,0.07466755862450002,-0.9916000396,0.35708194417000005
1.717671635273734e+18,0.13726001860614,-0.9928202748549999,-0.18422376802149998
1.717671635473734e+18,0.38931796625000004,-0.809709562395,0.1407565537014
1.717671635673734e+18,0.147733600894,-0.153298415432,0.11823409675460002
1.717671635873734e+18,-0.052595273320000004,0.1180219249106,-0.11949777369075001
1.717671636073734e+18,-0.08572858688225,0.023342436927949996,0.05556944203999999
1.717671636273734e+18,-0.05978102686539999,-0.06509072728879998,0.08789837621749999
1.717671636473734e+18,-0.05046592457060002,0.0009655461182599996,0.00856290597945
1.717671636673734e+18,0.150926594337,-0.07963939373145,-0.6996379428119999
1.717671636873734e+18,-0.16208112733194996,-0.17302186424350002,-0.7373048275649999
1.717671637073734e+18,0.05443162671021501,0.035841722799250006,-0.1266707810898
1.717671637273734e+18,0.051532831181600014,0.03585583484101,0.5381937297215
1.717671637473734e+18,0.00466572726096,0.0317481991833,0.019779184704799998
1.717671637673734e+18,0.009289558219989998,0.008737526687875,-0.0020536444907599998
1.717671637873734e+18,-0.014440031070100001,0.010989542014400002,0.060064123511305
1.717671638073734e+18,0.021881175902750002,0.0061502882631499995,-0.007940194871650003
1.717671638273734e+18,-0.006168177607749999,-0.0027842309554950003,0.0029914438610900004
1.717671638473734e+18,0.00171741232047,0.0014770302631799998,0.0001911143947028999
1.717671638673734e+18,0.00121478040233,-0.00107422333094,0.0005091693252431
1.717671638873734e+18,2.1739664967000012e-05,-0.0023163572187400007,0.00115821677606
1.717671639073734e+18,0.006008199869965,0.0009554619202555003,-0.0003774508834234999
1.717671639273734e+18,-0.00015883023130499994,-6.436713728500006e-05,0.0004962616192549999
1.717671639473734e+18,0.0028117175330774997,0.0033055613051100005,-0.0007059571740075
1.717671639673734e+18,-0.0033140981570149997,-0.0026238836579465,0.0010992806637399998
1.717671639873734e+18,0.00207491801118,0.0029368722227849997,-0.0008618170685944998
1.717671640073734e+18,-0.0011131989886259998,-0.0021671262628200003,0.0006271606485199999
1.717671640273734e+18,-0.001158484572105,4.981926174999996e-05,-0.0003001129312794999
1.717671640473734e+18,9.355496120000092e-06,0.002837067795995,-0.00040914910497500003
1.717671640673734e+18,-7.103838733499998e-05,0.000636162661362,-0.0003744030371385
1.717671640873734e+18,0.00526815161542,0.00931860872065,-0.0057821448544850005
1.717671641073734e+18,-0.004021450807409999,-0.0028541112781500003,0.0013544267800749998
1.717671641273734e+18,0.0017288520931799996,0.0017854618839499993,-0.0015717544593145001
1.717671641473734e+18,-0.0008137541823400001,5.740427871349999e-05,-0.0004199343849925001
1.717671641673734e+18,-0.0022743660724050003,-0.00024799117815999997,0.00011686406801999998
1.717671641873734e+18,0.0017894096555600002,0.0028697528702700003,-0.0008750632638010001
1.717671642073734e+18,-0.002324739121863,-0.0008614368911349999,0.00048220668110199994
1.717671642273734e+18,-0.0009560868609200001,0.00025451197877500003,-0.00044328878288
1.717671642473734e+18,0.00015933950197915,-0.0007220689498970003,0.0005347483616475
1.717671642673734e+18,3.044754267500005e-05,0.0006738442694000001,-0.000469432776985
1.717671642873734e+18,-0.0007726809592670001,-0.0006777577567400001,0.00022379779837899998
1.717671643073734e+18,0.0008604152477350001,-0.001873377204135,0.0005313053786264999
1.717671643273734e+18,0.00042596312704776593,0.0004484039906350001,0.00041692903039
1.717671643473734e+18,-0.0005006063031595,-0.000946019752925,0.0006502466276000001
1.717671643673734e+18,-0.003224922188795238,-4.005119455999975e-05,0.001240247910395238
1.717671643873734e+18,0.0033940644584299997,-0.001776295388095,0.0004528932798045
1.717671644073734e+18,-0.00410495949908,-0.0011144051387018499,0.0007316125266049999
1.717671644273734e+18,-0.000362850259945,0.0007773458666622002,-6.0811219750000014e-05
1.717671644473734e+18,-8.724656652799997e-05,0.0006472592998960001,-0.00010622949920235003
1.717671644673734e+18,-0.0007211980759925,-0.000303976458835,0.00013376176356500003
1.717671644873734e+18,-0.0018474010865749998,0.00017675783014999992,0.00024552365645500005
1.717671645073734e+18,-0.00027260541676755,5.6771031858999965e-05,7.314834494999998e-06
1.717671645273734e+18,-0.0007523510605100001,0.001274464564505,-0.0005548271932580001
1.717671645473734e+18,-0.0016096826410399996,-0.001579429319825,0.0007591363450325
1.717671645673734e+18,-0.0013247615657049998,-0.0005677695268599999,0.0007786849222800001
1.717671645873734e+18,0.0007168540495595,0.0021822805632399998,-7.361379103500009e-05
1.717671646073734e+18,0.0005699356784499999,0.002069097093755,-5.860914825000002e-05
1.717671646273734e+18,-0.0009730934048400001,-0.001749248057595,0.00026307665975749993
1.717671646473734e+18,0.00026181741848,6.301597470115002e-05,-7.995434563500006e-05
1.717671646673734e+18,0.0026620582211999994,-0.0007919977709410001,-0.0003217345045049999
1.717671646873734e+18,0.00045544058072500003,-0.0016866333608315004,0.00047077236232099997
1.717671647073734e+18,-0.0017570773606064999,0.0007304610974920001,-4.1287282050002587e-07
1.717671647273734e+18,-0.0012220728909829999,-0.0008449440648340001,0.0006238214148600001
1.717671647473734e+18,-5.3096155159999935e-05,0.00046800303393,0.00021438637049799999
1.717671647673734e+18,-0.0003076833322855,0.0005886828235945001,-0.0006063031265500002
1.717671647873734e+18,-0.0019604511792405003,-0.0026856085983249997,0.0011425944393885
1.717671648073734e+18,-0.0035858614369650007,-0.00077839117144,0.0026041417557599996
1.717671648273734e+18,0.001961039798395,0.002876896515946,-0.0006664581364811001
1.717671648473734e+18,0.0035269979734699995,0.001450118643625,-0.0022157719707825005
1.717671648673734e+18,-0.0032832668162499994,-0.0032523418137,0.001558222551905
1.717671648873734e+18,-0.00196615523892,-0.00517547291818,0.0020057067391000003
1.717671649073734e+18,-0.001107965223235,-0.003331087401895,0.002857225871281
1.717671649273734e+18,0.005738007324149999,-0.01122224983965,0.009016023273995
1.717671649473734e+18,0.00985324617961,-0.00240220191189,0.0011670254404370002
1.717671649673734e+18,0.0394750567816155,-0.00933457389425,-0.002892742765715
1.717671649873734e+18,0.103695128486,-0.012031126592849998,0.011891104333299997
1.717671650073734e+18,0.023337853281349998,-0.00035652469375990005,0.0056245077517
1.717671650273734e+18,0.027574364095999997,-0.003007622802495,-0.000477186316818
1.717671650473734e+18,0.027513764146600006,0.0036279234684500005,-0.004004964663150001
1.717671650673734e+18,0.014418808231400002,0.002103975252155,0.0008432955772435
1.717671650873734e+18,0.0243892758145,-0.0009441823407700001,-0.0028719510416744995
1.717671651073734e+18,0.020116695366785002,-0.0020501886844150005,-0.00455987327695
1.717671651273734e+18,0.00468414459648,-0.001789153367265,-0.000589384476235
1.717671651473734e+18,-0.00102018364709,0.0005258553777724999,-0.0008553857857204999
1.717671651673734e+18,0.005372905160774999,0.00019531464209245,-0.0008276230598099999
1.717671651873734e+18,0.000680593424426,0.0006149524415339999,0.0010101429594655
1.717671652073734e+18,0.003888992324855,-0.00093519712105,-0.0013355709379385002
1.717671652273734e+18,-0.0008123761276049999,0.0006569312652385,-2.4878961245000014e-05
1.717671652473734e+18,0.0041751842595969995,-0.00150149387202,0.00039116338589799995
1.717671652673734e+18,0.0014542717602649999,0.0007626260631049999,-0.0011167716060753498
1.717671652873734e+18,0.0025982335093579995,-0.00030405808940500007,3.821257160000033e-06
1.717671653073734e+18,0.008550194255155,-0.0022443351510099997,-0.00135888177907
1.717671653273734e+18,0.021101425157261,-0.0017729214276499996,-0.0014962414744599999
1.717671653473734e+18,0.01261591350208,-0.002495381952032,0.0004157231423049997
1.717671653673734e+18,-0.00321194818247,-0.00112983846336135,0.00031321576680100007
1.717671653873734e+18,0.0041024848004,-0.00415674064422,0.0006836100656379
1.717671654073734e+18,0.007433789006423809,-0.002780560847466667,-0.002163773541228572
1.717671654273734e+18,-0.0024982403149099996,0.0013917736301399999,-0.0056049957753799996
1.717671654473734e+18,-0.01057000767835,0.0028390582651050002,0.014056162373099998
1.717671654673734e+18,0.0034882783772599993,0.004078200698310001,0.00666349508168
1.717671654873734e+18,-0.004192507628,-0.0009048208244109999,-0.004177356220245
1.717671655073734e+18,0.01148190959325,-0.0009434858103999999,-4.720875300000001e-05
1.717671655273734e+18,-0.009102024895335,0.00244491307528,-0.0003132864658955001
1.717671655473734e+18,0.0027722181749499997,-0.0009629235195809998,-0.0011988001759399998
1.717671655673734e+18,-0.0020637522452435003,0.002079618535875,-0.001365908206325
1.717671655873734e+18,0.001133883371855,-0.000147318595549,-0.0008536719134435
1.717671656073734e+18,9.507102647499999e-05,0.000613248674251,-0.0007236919831440001
1.717671656273734e+18,-0.0009170881472005002,-0.000779226515355,-0.000416014675225
1.717671656473734e+18,0.00035524625565149995,0.0008963214582295001,0.00010206220324605001
1.717671656673734e+18,0.0004922080202175,-0.000281714211437,-8.711923148500001e-05
1.717671656873734e+18,0.00309619349425,1.2832623936249993e-05,0.000134432601071
1.717671657073734e+18,0.0024462765664800003,-0.0006884743110185,-0.00031345734598650003
1.717671657273734e+18,0.0029484211467100006,-8.747846583800003e-05,-1.5631882755999964e-05
1.717671657473734e+18,0.000956478994348,-0.00048288948597999997,0.000380765780562
1.717671657673734e+18,0.0005614258698200002,1.2999400389999965e-06,0.00011868513541500002
1.717671657873734e+18,-0.0031295964496650002,0.00017340717019999997,-0.00036164590859015
1.717671658073734e+18,0.00013674516236949997,0.0003478039812574999,-9.339028621749998e-05
1.717671658273734e+18,-0.001364233344787,0.0002090926398585,4.180475368149999e-05
1.717671658473734e+18,-0.001402569375855,0.0005365187011254502,-0.00051935827351295
1.717671658673734e+18,-0.0017858244478500002,-0.000461729971004,-0.0005722760106264999
1.717671658873734e+18,0.001377552049159,0.00024281196525750005,-0.00040353915542
1.717671659073734e+18,-0.000541442097095,-0.00025876364668,-0.000101758085678
1.717671659273734e+18,-0.000327212479805,0.00050056357868816,0.00045826206329899996
1.717671659473734e+18,0.0007523203268165001,-0.000570413080314,0.0003431439923215
1.717671659673734e+18,0.00575691504627,-0.0018065423879389999,0.00020665692868549997
1.717671659873734e+18,0.004701135749920001,8.154034142849998e-05,0.0006869719655185002
1.717671660073734e+18,-0.00034023073965200004,-0.000659114675332,-0.000571301369885
1.717671660273734e+18,-0.001598707574905,-0.00050050881109775,-5.162162710499998e-05
1.717671660473734e+18,-5.292531557999971e-06,0.00044618274551850006,0.0001149698393625
1.717671660673734e+18,-0.000605713867155,-4.8672931740000005e-05,-0.00012760639079000002
1.717671660873734e+18,-0.010447360575999999,0.00191507739942,-0.0005484471330140002
1.717671661073734e+18,0.003314658614905001,-0.0003448099072699999,-0.000615696184125
1.717671661273734e+18,0.00239587294636,-0.00014166122417199998,0.0001623926335275
1.717671661473734e+18,0.0024547157576335,-0.0006854384846110001,-0.000168881443065
1.717671661673734e+18,-0.000616399105626,-8.241372419500001e-06,0.00028656273496600003
1.717671661873734e+18,-0.000364094076185,0.00016398857110549997,0.00031535087622
1.717671662073734e+18,0.0005323747987892001,-0.00021645271925700002,-0.0006058517028150001
1.717671662273734e+18,0.00021100332959499997,5.969658961599998e-05,0.00020589044433799993
1.717671662473734e+18,-0.0007980022579899999,0.0004082058265815,0.00011076261288599999
1.717671662673734e+18,-0.00038831016277499997,0.00010448405522900004,-0.00012992018598550003
1.717671662873734e+18,-0.00025986586695000004,0.0001797079457955,0.00027829260213746
1.717671663073734e+18,-0.000288205058302,0.00012042273299999999,-0.000397322478255
1.717671663273734e+18,-0.0005740112741200001,-0.00037012148523590013,0.00010683535363549998
1.717671663473734e+18,0.0003156160820214999,4.261473071499999e-05,-0.00013928527478285002
1.717671663673734e+18,2.7687544895000043e-05,0.00017958290983499997,-2.8220575763599982e-05
1.717671663873734e+18,0.0032778567750450004,9.098378942999999e-05,0.0003345820412195
1.717671664073734e+18,0.003621766855975,-0.0005067458435364999,0.00025293633803355
1.717671664273734e+18,0.004087509878365,-0.000856020703258,0.00023426476402799997
1.717671664473734e+18,0.002180331211696,-0.0007934746623664999,-0.0001975377963
1.717671664673734e+18,0.002044916407893333,-8.438839134380954e-05,-7.90631609142857e-05
1.717671664873734e+18,-0.0008906961185170001,-1.4384486676500012e-05,-0.000107888120695
1.717671665073734e+18,-0.0012620709836700002,0.000558398605747,-0.00021785423153750002
1.717671665273734e+18,-0.0027129482711104997,0.00010552690945099996,-0.00013679558758694998
1.717671665473734e+18,-0.00094639253805,1.2454035460500006e-05,-0.000319769897014
1.717671665673734e+18,-0.0004159525503002,-7.635488859000033e-06,-0.00039070104253000006
1.717671665873734e+18,0.00024818483516049993,2.0056421631e-05,-0.00023141956771399996
1.717671666073734e+18,-0.0004969888717400001,0.0004453386180100001,0.00028384709144
1.717671666273734e+18,0.0001812739414485,-0.00076080865106835,1.7261144244999967e-05
1.717671666473734e+18,0.000820967589967,-4.063032103450001e-05,0.0005094235064679999
1.717671666673734e+18,-0.00568944227426805,-0.00027599556481749997,-0.000536514120179
1.717671666873734e+18,0.0126732964763,-0.0014034883527249999,0.0022884728969280003
1.717671667073734e+18,0.007310380275725001,-0.0010383915214300001,-9.368673194354998e-05
1.717671667273734e+18,-0.00026422245415999996,-0.001479551225155,-0.00043473069095805
1.717671667473734e+18,0.00398354700288,0.0006464448291625001,0.0008595007995949999
1.717671667673734e+18,0.00270023124742,-0.00114750541401,1.6767857596499997e-05
1.717671667873734e+18,0.0035596737054994997,0.00065466099184,0.0007136743166513001
1.717671668073734e+18,-0.0038431778550949993,0.000635110406464,-0.00047177162479900003
1.717671668273734e+18,-0.0020945686380799996,0.0017101057922549998,-0.00023471233433399998
1.717671668473734e+18,-0.002236531651644,3.3179007015950004e-05,-0.0008130202652314999
1.717671668673734e+18,0.00013795370473999993,0.000676699128283,0.000263296219025
1.717671668873734e+18,0.00015244213867200007,-2.212024417300001e-05,0.00023819947963
1.717671669073734e+18,0.00038305713091249993,0.000378553319,0.0002360439626785
1.717671669273734e+18,0.001623727404535,-0.0007466801907249998,-0.0012273976345577
1.717671669473734e+18,-0.0008785847230000003,0.0014139642124975003,0.001546497625498
1.717671669673734e+18,-0.0036407329375799996,0.00049204571403745,7.177760119399999e-05
1.717671669873734e+18,-0.0013096144656,0.0008567482116525,0.00017976319072049993
1.717671670073734e+18,0.0018571302993299998,-0.0001535479910595,0.0019954341930010005
1.717671670273734e+18,-0.00026219841093999986,-0.0011206886032599998,-0.0010620959568600002
1.717671670473734e+18,0.005004832637860001,-0.0005544223648575001,0.000723192043418
1.717671670673734e+18,0.003550282050805,-0.000901609368141,0.00024710191647199997
1.717671670873734e+18,0.001841964479595,0.00017497980736700002,-0.0007097971276875001
1.717671671073734e+18,-0.0006723033265470002,-0.0004148970415680001,0.0002795874432535
1.717671671273734e+18,0.007381918886419999,-0.0009740912588235,0.00040367473851999995
1.717671671473734e+18,-0.005634084623349999,-0.00037004533804500003,-0.0008928897441699999
1.717671671673734e+18,-0.0012738939607572501,0.000532770680743,-6.0533895226500086e-05
1.717671671873734e+18,-0.0009318049997,0.001020814559898,0.0012457298521799999
1.717671672073734e+18,0.00039736854382265005,0.0003357121371455,-0.00010987746645728003
1.717671672273734e+18,-0.0005608587758549998,0.0005339508701449999,0.0002503969123945
1.717671672473734e+18,0.001205929298805,-3.966934163850002e-05,-5.244972417219997e-05
1.717671672673734e+18,-0.0009166380623749999,3.436355035500001e-05,-0.0002631027950285
1.717671672873734e+18,-0.0022553840884249996,0.0006304607842774999,-7.73875799735e-05
1.717671673073734e+18,-0.00203243135477,-2.6921881350999996e-05,-0.0002662322600794999
1.717671673273734e+18,-0.001298359234315,2.8423784505000013e-05,-0.0003695647232145
1.717671673473734e+18,0.0027203990727145,-0.00015406747699860002,-0.00010987038260449999
1.717671673673734e+18,0.001798133656895,-0.0006294785882249999,0.00011802599754750006
1.717671673873734e+18,0.002023375628025,-0.00034324549488,0.00022205255812
1.717671674073734e+18,0.0037938178865350005,-0.000296491378714,0.00036051809435
1.717671674273734e+18,0.0031193183036,-0.000442239007717,-0.000126993551386
1.717671674473734e+18,-0.0007626689969824999,0.000272525387155,0.0003591339278565
1.717671674673734e+18,0.0032026953762482996,0.0003346182813021,-3.898993567700011e-06
1.717671674873734e+18,-0.0021909311528499997,0.0005149050964989999,5.3253059740000015e-05
1.717671675073734e+18,-0.0033710152377699996,0.00048173354590799993,-0.00031666798751299994
1.717671675273734e+18,0.0007456350028428572,0.00046130568012761906,0.00023142622025
1.717671675473734e+18,0.0005698136868599998,-0.0003635032276559999,-0.00035923511018000006
1.717671675673734e+18,-0.000690884364291,0.0002857245737717001,0.0002186869271565
1.717671675873734e+18,0.0028309861664500002,0.001047486485985,-0.0005519410827550001
1.717671676073734e+18,-0.00105229686018,-0.000822064594842,0.0005166802147749999
1.717671676273734e+18,0.003740293602145,-7.487571579499979e-06,-0.00034381868321350006
1.717671676473734e+18,-0.003194823069819999,-0.000808972056232,-0.00013169951277324998
1.717671676673734e+18,0.003130226058136,-0.0006541653419655,0.0001491292729305
1.717671676873734e+18,0.003855309681995,-0.00032720366721099997,0.0009773374534950002
1.717671677073734e+18,0.0012683217762795,-0.0007481978507899999,-8.693155829450001e-05
1.717671677273734e+18,0.0013794725296069998,-0.0002397352946435,0.0004668902722200001
1.717671677473734e+18,-0.004933539032717001,0.0017977918556510001,-3.2519653989500004e-05
1.717671677673734e+18,-0.00998237160992,0.0008142610138880001,0.0016352132660399997
1.717671677873734e+18,0.009214249206915002,0.00044034424351349996,-0.0015305854205849999
1.717671678073734e+18,0.0010527754085899999,-0.0008841958363150001,-0.00013084951788999998
1.717671678273734e+18,0.0037713493570049996,0.00036024864523000004,0.0003984614857925
1.717671678473734e+18,-0.0008527144324894998,0.0003413275349500001,-0.001355653035075
1.717671678673734e+18,0.0004585945861550001,-0.0006016586557650001,0.001182903529872
1.717671678873734e+18,0.001533390651485,0.0018183898879849999,-0.00107308953894
1.717671679073734e+18,-0.0036792479567900006,-0.000881332496521,-0.0008356502512349999
1.717671679273734e+18,0.0051624915791435,0.0017798823654045,0.001637068711015
1.717671679473734e+18,-0.0009977154318900003,-0.0019703201076599996,-0.000638024410032
1.717671679673734e+18,0.005235856678599999,0.0013089895714000002,0.0007374514592205
1.717671679873734e+18,0.00224897162986,-9.177280578075001e-05,-0.0008522738935500002
1.717671680073734e+18,0.00070230541745,0.00012268915301500002,0.0006204690784470001
1.717671680273734e+18,0.00920165919251,0.0008186566876550002,-0.001594120642371
1.717671680473734e+18,-0.01014310511476,-0.0003025039098949999,0.00198332045691
1.717671680673734e+18,0.00451249225303,1.0705587860999964e-05,-0.000813511444705
1.717671680873734e+18,-0.004061619518124999,-8.090847399499998e-05,-1.0498816850000038e-05
1.717671681073734e+18,0.00475294598185,0.0007682634284480001,0.0008651471056750001
1.717671681273734e+18,0.0036399447471000003,-0.00019196193888,-0.001197038509355
1.717671681473734e+18,-0.009543349710364999,0.0013682580262475,0.0015991963504349998
1.717671681673734e+18,0.00738567933405,0.00033570191591750004,-0.002142499561827
1.717671681873734e+18,-0.0094863150857,0.000226942403204,0.0023766460013299995
1.717671682073734e+18,0.008701410284050002,-0.0008618171559195,-0.0010507709812496
1.717671682273734e+18,0.0006590094061350004,-0.0003160766674699999,0.000249415996885
1.717671682473734e+18,0.0030335004556850003,-0.00027174067798939994,0.0009763765148700001
1.717671682673734e+18,0.0090565394607,-0.00150483455509,-0.0008070414420050002
1.717671682873734e+18,-0.0033398715538000014,0.00011250906391500006,0.001937124208758
1.717671683073734e+18,0.00306605682692,-0.00038753334089499996,-0.0015823695691694999
1.717671683273734e+18,-0.004310630495620001,0.0005436108389000001,0.00018354771320000014
1.717671683473734e+18,0.0035115403936499994,0.0005865448445045,-0.0010300768888529999
1.717671683673734e+18,0.00418546164951,0.0008401989122855001,-0.003197476849815
1.717671683873734e+18,-0.01232299404184,-3.2028206615e-05,0.004581326316140001
1.717671684073734e+18,0.011424668598244998,-0.0017495305976549997,-0.0024386867065350004
1.717671684273734e+18,-0.00018715835193000002,0.001369225984754,0.000824201700705
1.717671684473734e+18,-0.0028199577237499997,-0.000982211442924,0.0004963103040550001
1.717671684673734e+18,0.003273212235135,0.0016646902834459999,-0.0015175252338324996
1.717671684873734e+18,-0.00581354594265,-6.912486277899999e-05,0.0020077332214
1.717671685073734e+18,0.008306879223145002,9.275876220999999e-05,-0.0011470334837524999
1.717671685273734e+18,-0.0004755287897184999,-0.00056014966681,-0.000540176843076
1.717671685473734e+18,0.0001462786107300002,-0.0008195075322515002,0.0003177733392379999
1.717671685673734e+18,0.0018338004481428564,0.000625875745265238,0.0013124400229285714
1.717671685873734e+18,-0.00027649368860749996,-0.0006970416404699999,-0.0012342129951275
1.717671686073734e+18,0.0032580357393690003,0.0008848239668000002,0.00077906805672
1.717671686273734e+18,-0.0007209701811400001,-0.0003392892890055,-0.00029222560697199997
1.717671686473734e+18,0.0026740548667750002,0.0002750899817099999,0.0005877486896215
1.717671686673734e+18,0.002288543293285,0.00017835855824599995,-0.00010931165885399993
1.717671686873734e+18,0.0033933354307869997,-0.0003946253913455001,-0.00016267221069500004
1.717671687073734e+18,-0.0015227607100950001,0.00026852181188450003,0.0011412829858990002
1.717671687273734e+18,0.004119054402600001,-0.00029809284602499997,-0.000563252635796
1.717671687473734e+18,-0.0017605642206999998,0.000262359628645,-0.0004974817741180001
1.717671687673734e+18,0.00285485025975,-9.144420622500004e-05,0.0006060468033
1.717671687873734e+18,-0.001323327701405,0.0009652664885099997,-0.0005078581743655
1.717671688073734e+18,0.00353574774936,-0.0012867908226100002,-0.0002523051342561499
1.717671688273734e+18,-0.0020827659406150003,0.0015146226679974997,0.0011367569618909996
1.717671688473734e+18,0.004052484198354999,-0.00098142050553,-0.0005850411137035001
1.717671688673734e+18,0.0008646168161435,-0.026491379344729997,0.009684776892660498
1.717671688873734e+18,-0.0898835666866,0.051735521107499995,-0.00284950742425
1.717671689073734e+18,-0.007364660594110001,0.059024613817000006,-0.055371665212
1.717671689273734e+18,-0.006099544697999997,0.11040618312275,-0.0956367493073
1.717671689473734e+18,0.30145335049,0.4488265589,-0.0428762329775
1.717671689673734e+18,0.0277302764812,-0.08861851520639999,-0.0649120139658
1.717671689873734e+18,-0.8583456382050001,0.21971226566850005,-0.017455350803850005
1.717671690073734e+18,-0.8198272138749999,0.19751953072500003,-0.44984467999
1.717671690273734e+18,-0.7919986546,0.657994876815,-0.071837693076
1.717671690473734e+18,-0.5247628197099999,0.4213789425750001,0.0635661751349
1.717671690673734e+18,-0.6577458739250001,0.8438645422199998,0.16015172499235
1.717671690873734e+18,-0.4165718905649999,1.37321360715,0.4684438824599999
1.717671691073734e+18,-0.16350818895719998,2.23171535155,0.310882320255
1.717671691273734e+18,-0.22018795460650004,2.1365273713499997,0.68374505042
1.717671691473734e+18,-0.22452517757899998,2.0187472998500002,0.973064510899
1.717671691673734e+18,-0.098374928996,0.776402261855,0.51915463358
1.717671691873734e+18,-0.05938051187964001,1.8924005716699999,0.78950539824
1.717671692073734e+18,0.5848580099705,1.5878693044499999,0.39281668376072487
1.717671692273734e+18,0.34881498516000004,0.396660786693,-0.318323626219
1.717671692473734e+18,0.09249970353800001,0.15843067601715,-0.21947908531500002
1.717671692673734e+18,-0.746582549805,-0.21985382065599995,-0.26343997419500004
1.717671692873734e+18,-0.492247127005,0.0153210421436,-0.180031657027
1.717671693073734e+18,-0.22189523801350003,0.10296674119850002,0.0015862678665000158
1.717671693273734e+18,0.12818818329099999,-0.20505377086389998,0.051637793611
1.717671693473734e+18,0.41356108039499995,-0.39217830336149995,-0.09511438320099999
1.717671693673734e+18,-0.3335207323573,0.14152033175399997,0.03477060763950001
1.717671693873734e+18,-0.29090475068,-0.05544588717340002,0.055622819806
1.717671694073734e+18,0.11266850837799999,-0.09650536969935,-0.05939451266720001
1.717671694273734e+18,0.45929798373299996,-0.0031384634777999994,0.0691954329943
1.717671694473734e+18,-0.3343194250010001,0.1521985566042,0.0099864301267
1.717671694673734e+18,-0.13786578309715,0.322437586915,0.08551246091325501
1.717671694873734e+18,0.36088890321550005,-0.33370108156999995,-0.063749965043935
1.717671695073734e+18,0.2444234959844999,-0.15834444006700005,-0.13437961258180003
1.717671695273734e+18,-0.5611078113300001,-0.057275834591,-0.002309202194449998
1.717671695473734e+18,-0.09405006349165002,0.0773216878385,0.0020379589641999984
1.717671695673734e+18,0.4756235301549999,-0.01116518302901,0.06161120973249999
1.717671695873734e+18,-0.13611216694699999,5.5203603749999844e-05,-0.0386253582315
1.717671696073734e+18,-0.38393494187500005,-0.000975052198045,-0.013216122193550001
1.717671696273734e+18,0.09272618557047621,-0.021895788607142856,-0.036261954721
1.717671696473734e+18,0.5581576719900001,-0.20425404348049997,0.0063545861516800025
1.717671696673734e+18,0.24853678009399988,-0.06799025259625,-0.033891420275449995
1.717671696873734e+18,-0.31253892220849994,-0.356061255555,-0.1928403249415
1.717671697073734e+18,0.76381938609,-0.7673631768999999,-0.3587202214595
1.717671697273734e+18,0.8229608580499999,-0.31624832861,-0.20159295843855
1.717671697473734e+18,0.8456768035750001,0.4544047067327,-0.37447938322999996
1.717671697673734e+18,0.8798125386300001,0.35498402491575,-0.22002515122000005
1.717671697873734e+18,0.9088787764300001,0.1632109433425,-0.050211351173450006
1.717671698073734e+18,0.8761828869149999,0.07397836819,0.21279203337659996
1.717671698273734e+18,2.18695933825,-1.0971321679715,2.0205974699
1.717671698473734e+18,-0.09298389889,-8.3615411273,0.5735565818899999
1.717671698673734e+18,-1.247423422005,-8.862272525149999,-4.70787211665
1.717671698873734e+18,0.7210636420475,-4.26634336715,-3.8985730767499995
1.717671699073734e+18,2.252906688405,-0.690804643925,-2.2347666204
1.717671699273734e+18,0.39371563026299994,-1.7614712544150002,-0.8223423138565
1.717671699473734e+18,0.114937682362,-0.7554303304250001,-0.29671364716134996
1.717671699673734e+18,0.010008050615955,0.099805836665,-0.149229974487
1.717671699873734e+18,0.096792516596,-0.06860534523866665,-0.049693480519579995
1.717671700073734e+18,,,
