Timestamps,Gyro_X,Gyro_Y,Gyro_Z
1.7176991711359532e+18,1.2706220890200057e-05,0.011932154302400003,-0.003939054626950001
1.7176991713359532e+18,-0.01361404925145,0.0658563971999,1.903250854999941e-05
1.7176991715359532e+18,-0.9714594490770001,1.1361273959399998,-0.2622927435715
1.7176991717359532e+18,-0.329806487284,1.1376810059475,-1.8028152495499998
1.7176991719359532e+18,-2.6008961141349998,-0.06224298453649999,-4.68643298145
1.7176991721359532e+18,-2.51173125883,-1.91199272875,-2.9872819066000007
1.7176991723359532e+18,2.5989281296799995,-0.6487251728512999,-0.3190616516615001
1.7176991725359532e+18,1.8509860291399995,2.4203044131149993,2.63434458975
1.7176991727359532e+18,-0.9180548119684209,1.1535242748963155,0.6275045085826316
1.7176991729359532e+18,0.03352856923584999,0.15710529541900004,-0.145159928863
1.7176991731359532e+18,-0.2301735974942,-0.5972547435999999,0.14635962090000001
1.7176991733359532e+18,-0.2054691990805,0.15509116508985,-0.31919443584245
1.7176991735359532e+18,-0.267554522956,-0.19117117636349998,-0.409861090013
1.7176991737359532e+18,-0.20558029641750003,0.010405144666500004,0.6521964900249999
1.7176991739359532e+18,1.3728011160600002,-0.030489426132500018,1.5360410452349997
1.7176991741359532e+18,1.240921524865,0.07974016598999997,0.30666319914299994
1.7176991743359532e+18,0.010014586145789475,-0.012679556598421075,0.23729622610842108
1.7176991745359532e+18,-0.23389734850350002,0.068787306927,-0.49415393177450007
1.7176991747359532e+18,0.04098066048185,0.08745668794169999,-0.1286976680095
1.7176991749359532e+18,-0.098255849998,-0.22695148625,-0.24530461972905
1.7176991751359532e+18,0.2280037774855,0.0690829761435,0.08337997623675
1.7176991753359532e+18,0.1475668128575,0.284996557673535,0.09431325136549999
1.7176991755359532e+18,-0.015360246126850002,0.161473476887,0.2784017894475
1.7176991757359532e+18,0.0782125679803,-0.03005576600149999,0.255896309773
1.7176991759359532e+18,-0.31991137001000003,-0.05090140204114999,0.28166993856199996
1.7176991761359532e+18,0.16043540108894738,-0.13390327828089474,-0.03958348601210526
1.7176991763359532e+18,0.1725439117285,-0.193335855718,-0.058572973587549995
1.7176991765359532e+18,-0.5779747164175001,0.45798527975650005,-0.014912187224999998
1.7176991767359532e+18,-0.04357267204214441,-0.08093116451349998,-0.001498579777800002
1.7176991769359532e+18,0.23639992127115,-0.0757659279305,-0.034238378024149994
1.7176991771359532e+18,-0.1861802452405,0.10804358606540002,-0.0059485720037499995
1.7176991773359532e+18,-0.18263527282050002,-0.02219913367110001,0.032375174014999994
1.7176991775359532e+18,0.1026643333692,-0.06448844541349999,0.010810296628349998
1.7176991777359532e+18,0.4642228962563158,-0.11311403328842105,0.02187315659105263
1.7176991779359532e+18,0.2317059579985,-0.0805467619595,-0.0750469797195
1.7176991781359532e+18,-0.6217868264885001,-0.1222313257579,-0.14931943636270004
1.7176991783359532e+18,0.05139901115649999,0.13588385842650003,0.03897954748995
1.7176991785359532e+18,0.3723303211185,0.006339846931500001,0.00802317722375
1.7176991787359532e+18,0.647541381415,0.04708018189175001,-0.005326219920949999
1.7176991789359532e+18,-1.00637530009,-0.256326370513,-0.1311887122305
1.7176991791359532e+18,0.041316741141499996,-0.0003141626719999981,-0.05872384578288951
1.7176991793359532e+18,0.3446477802547368,0.18476039820415788,-0.01607260046736842
1.7176991795359532e+18,0.6225769057899999,0.0306426020385,-0.04957600384500001
1.7176991797359532e+18,-0.92668333408065,-0.33221423741999995,-0.06742662442
1.7176991799359532e+18,0.6800779007739999,0.18371372779225,0.0008448550435000021
1.7176991801359532e+18,-0.6474802090065,-0.11492281146250001,-0.17411251198049998
1.7176991803359532e+18,-0.12920324034861,0.06455918653599999,-0.1439180993375
1.7176991805359532e+18,-0.0067916764868499995,0.20301319007600002,-0.05312899716945
1.7176991807359532e+18,-0.07011806863904999,-0.40290448723835004,0.156951957762
1.7176991809359532e+18,-0.036941365897245004,-0.20790989398450002,0.012996041308450001
1.7176991811359532e+18,0.03650487297589474,-0.030903492635684208,0.018883167641315788
1.7176991813359532e+18,-0.04842536780489,0.09066346651100002,0.03823394654389999
1.7176991815359532e+18,0.009000477776415,0.06249393811099999,-0.022679507732300003
1.7176991817359532e+18,-0.014228275022134997,-0.042749662697335,-0.028160870959949996
1.7176991819359532e+18,-0.012190332821950001,0.03985670073975,0.034305349271800005
1.7176991821359532e+18,-0.074290796623,-0.033110476131760005,-0.027428038557349994
1.7176991823359532e+18,-0.0218624281351,-0.023951080789400003,0.0058547979687
1.7176991825359532e+18,-0.03161371001025,0.0016197326121450014,-0.003595361229850001
1.7176991827359532e+18,-0.004614419168326316,-0.025535518451600004,0.022252603948526316
1.7176991829359532e+18,-0.015977747947850004,0.04466971905065,0.012314739800885002
1.7176991831359532e+18,0.022603966854280004,-0.014918136317249997,-0.009256231738335001
1.7176991833359532e+18,0.15163415425715,-0.21398146618650005,-0.010329270433029999
1.7176991835359532e+18,0.2670950797903,0.06770071153170001,-0.02725578351
1.7176991837359532e+18,0.08945165974899999,-0.08904484733000001,0.026897031860300003
1.7176991839359532e+18,0.0554684733958,0.03714784192704999,0.00497777014935
1.7176991841359532e+18,-0.05644983269605001,0.028891382657484997,0.028199527575599997
1.7176991843359532e+18,-0.043451828588421046,0.0631336363425263,0.022097625745042104
1.7176991845359532e+18,-0.092794882697,0.07028187653574999,0.008593652000709998
1.7176991847359532e+18,-0.031145905005499998,0.05316784111899999,0.028198837907979994
1.7176991849359532e+18,0.009286882006175,0.051216944867,-0.0024272665843
1.7176991851359532e+18,-0.0008251275633499996,0.009078386705,0.00379411303446
1.7176991853359532e+18,0.011016808357750001,0.015148664591749999,0.01751301433035
1.7176991855359532e+18,0.0034017037022450007,0.00976337892855,0.0018809671980995
1.7176991857359532e+18,0.00550134913068,0.00278921639515,-0.0013736589114278
1.7176991859359532e+18,-0.00185029605612,0.0099922367374415,-0.0006825235786500001
1.7176991861359532e+18,-0.004291738996357894,0.001959002723826316,0.007767692355468421
1.7176991863359532e+18,0.005762081231835,0.010256254219549999,-0.0105363710082
1.7176991865359532e+18,-0.0019532085630499995,0.00636693558251,0.0011340470750599999
1.7176991867359532e+18,0.0030922539182800003,0.0013657358707500002,-0.0019750063890200003
1.7176991869359532e+18,0.0065158631646500004,0.01100982495116,-0.0008036862593139999
1.7176991871359532e+18,-0.011818177042785,-0.006264130026395,0.001101369457275
1.7176991873359532e+18,-0.010125217273209999,0.010610063490150002,-0.0020584362908549997
1.7176991875359532e+18,-0.00843731904107,0.004763630044700001,0.0026809798087795004
1.7176991877359532e+18,0.010724763802157896,0.003689683238442105,0.0011346954607894737
1.7176991879359532e+18,0.02124605714325,0.017379818856729998,-0.0015318039453794997
1.7176991881359532e+18,-0.0042885359498650005,0.0066653514754500005,-0.0005372418557380999
1.7176991883359532e+18,-0.00807920790953,0.00920213817185,-0.0025118011050150003
1.7176991885359532e+18,-0.0083809707195,0.003962926706575,0.0019126201047725
1.7176991887359532e+18,7.396028418599977e-05,0.00014231094372650003,-7.081520750999999e-05
1.7176991889359532e+18,0.012733866995824999,0.002577841072344,-0.004526654072050001
1.7176991891359532e+18,0.0015785665136400003,-0.005715804966505001,-0.0002304561203710001
1.7176991893359532e+18,0.010146779792873685,-0.0024413460938263157,-0.001238801467593
1.7176991895359532e+18,0.013873980357900004,0.003512589493710001,-0.001284454518535
1.7176991897359532e+18,-0.0012816163589999996,-0.0031618301761,-0.001114406390122
1.7176991899359532e+18,0.0018624426911149996,-0.014026705129434996,0.0009614069130995
1.7176991901359532e+18,-0.0035955993342000002,0.001278472389175,4.416301376099998e-05
1.7176991903359532e+18,0.0012948627815579999,0.0011322222301819998,-0.0009656575275964998
1.7176991905359532e+18,-0.004411980568000001,-0.004344009455885,0.0010059951804150002
1.7176991907359532e+18,-0.0052054314989149995,0.00093702079014,-0.00053517005863
1.7176991909359532e+18,-0.0032618742902049995,0.001477752101745,-0.00147988887028
1.7176991911359532e+18,-0.007176533145826315,-0.00047825562385789467,0.0009559563876705263
1.7176991913359532e+18,-0.00689877138926,-0.004676220205355,0.0003037729999610001
1.7176991915359532e+18,-0.002819168381415,0.0036538377751599996,-0.000871033710385
1.7176991917359532e+18,-0.0064047997818,-0.0024781711282965005,0.001297559123475
1.7176991919359532e+18,-0.009974659874849998,0.0021275470967750004,-0.00015350979518150004
1.7176991921359532e+18,-0.011640390217799999,0.0014547225202515,0.00020723347550050003
1.7176991923359532e+18,-0.005113793862815,0.0143236103235,-0.0018532964634525
1.7176991925359532e+18,-0.00823345381055,0.006176225072335,0.0021792454412929998
1.7176991927359532e+18,-0.008884024708826314,-0.0008652882010315787,0.0013926899256842104
1.7176991929359532e+18,-0.004570590320569999,-0.00426597443824,0.001335419365148
1.7176991931359532e+18,0.0034177747788724996,0.00193832786753,0.00011970238993000007
1.7176991933359532e+18,0.0021296860641650006,-0.0028519327284999996,-0.00118571894713
1.7176991935359532e+18,0.0050182580831,-0.0060804016662000014,0.0008559897541254999
1.7176991937359532e+18,0.002600103011302,0.0037292800262410004,-0.00017971668855449991
1.7176991939359532e+18,-0.0012350402890750002,0.0026918568059050006,-0.0016512569039965
1.7176991941359532e+18,0.0073535686593,-0.005961945326430002,-0.000956844258995
1.7176991943359532e+18,0.0010253565239947368,0.002304607279278948,0.00011300972029105261
1.7176991945359532e+18,-0.0025294416467950003,-0.00031741787628000045,-0.0007327389437199999
1.7176991947359532e+18,-0.008421717618950001,-0.0072482792896,0.0014792369445799998
1.7176991949359532e+18,0.000952114398065,-0.000338199920765,-0.0015643600372900004
1.7176991951359532e+18,-0.004747012874735,0.0022158063483754997,0.00149819259533
1.7176991953359532e+18,-0.0010870000701999993,0.0011189129884949997,-0.0035934825079280003
1.7176991955359532e+18,-0.00271739749017,-0.0035251547819699996,0.00033583595656
1.7176991957359532e+18,-0.006656441255605,0.0077704268860499985,-0.0028617021626345003
1.7176991959359532e+18,-0.008543613145675,0.00610839088945,-0.001721291116
1.7176991961359532e+18,-0.010160751787842107,-0.00201213896550421,0.0025274104585789477
1.7176991963359532e+18,-0.0109528867536,0.005219527565965,-2.1279568346499987e-05
1.7176991965359532e+18,-0.0070449394638,0.006684504658599999,0.0006386957247300001
1.7176991967359532e+18,-0.008087060356140001,-0.0026944190498525,0.00033340964003500005
1.7176991969359532e+18,-0.001775030896555,0.002215389546582,0.0005122087663500001
1.7176991971359532e+18,0.0019016360630300002,0.004383809887760001,-0.0004795819521350001
1.7176991973359532e+18,0.00087044771106,0.005033237615675001,-0.0007669025216100001
1.7176991975359532e+18,0.0011912695365985005,0.000837775913394,0.000215273397035
1.7176991977359532e+18,0.0009375651317842104,-2.539437269631574e-05,-0.000387494917918421
1.7176991979359532e+18,0.00345630294187,-0.0017231061239350004,-5.489005615000008e-06
1.7176991981359532e+18,0.00556617660918,-0.00110344837884705,0.00038202130223280006
1.7176991983359532e+18,0.005142593477000001,-0.0049902578932,0.0007512889103487
1.7176991985359532e+18,0.0009116585368350004,-0.003984394622650001,-0.00017087927546624996
1.7176991987359532e+18,-0.003399787494125,-0.0025144737444850003,0.0005604305071600001
1.7176991989359532e+18,-0.0010897053056500002,0.00420093789045,-4.5432592719999995e-05
1.7176991991359532e+18,0.0012088452698575001,0.0008871961267999998,-0.0012531983782650001
1.7176991993359532e+18,-0.00041368897807894726,-0.000417163289131579,-0.00044823828833263164
1.7176991995359532e+18,-0.0056669722072,0.0019601479407910004,0.001101306593035
1.7176991997359532e+18,-0.0008299157140100001,-0.0036801442039500003,0.000976331369065
1.7176991999359532e+18,0.0005453528835750001,0.00372477455605,0.0014300339156950001
1.7176992001359532e+18,-0.0016040691290779997,0.001054993318351,1.964878749249996e-05
1.7176992003359532e+18,-0.00214439226582,0.0058401510700099996,-0.0008099953761599998
1.7176992005359532e+18,0.0011275909840335,0.0001051482980640001,0.0022897251415260004
1.7176992007359532e+18,-0.0008405423024699999,0.0032248300731944997,-0.00025351271034000005
1.7176992009359532e+18,-0.004412530816600001,-0.0062289734486999995,0.0019688266212900003
1.7176992011359532e+18,-0.00675902705618421,0.006614971379521053,0.0005507197379
1.7176992013359532e+18,-0.009891242359420002,0.005839595128999999,0.00176721334017
1.7176992015359532e+18,-0.004490960214770999,0.004124511184599999,2.1006993543499922e-05
1.7176992017359532e+18,-0.008919704065899998,0.0018665696608350004,0.0018671527272599998
1.7176992019359532e+18,-0.005135748558683001,-0.007448022917370002,0.000916214380418
1.7176992021359532e+18,-0.007837946352049999,0.0035569345810650002,0.00101031695951448
1.7176992023359532e+18,-0.0032252693664700004,0.0082224463809,0.00103159954307
1.7176992025359532e+18,-0.005949828412979499,-0.004694713920300001,0.0004633730045099999
1.7176992027359532e+18,0.0028956516791910527,-0.0008589870077526313,0.0021763810348073686
1.7176992029359532e+18,0.002300134371048,-0.0030969284009000004,-0.0011783255380709997
1.7176992031359532e+18,0.00040610521068999976,-0.00047685150051999994,-0.00046844831667
1.7176992033359532e+18,0.00017308965332499997,-0.0049524823665500015,-0.00050010292331
1.7176992035359532e+18,0.0007564776810370001,0.0013255210245125002,0.0009510749019404999
1.7176992037359532e+18,0.0021601459477455,-0.00020942473785500013,0.00025694523935499997
1.7176992039359532e+18,0.00151908148539,-0.0019224011105785001,0.00017540261611099999
1.7176992041359532e+18,0.0016842795188029998,0.00012115932777500005,-0.0012305057374703502
1.7176992043359532e+18,0.0027500901600550002,-0.0018171065835650001,-8.723831267499998e-05
1.7176992045359532e+18,0.0008190705219526316,0.0020896070147684216,0.0001247739663952631
1.7176992047359532e+18,0.0013825215632000001,0.0009242542320350002,0.0008336107712250001
1.7176992049359532e+18,-0.0004107458633785,-0.0027856689295753497,-8.711565755999999e-05
1.7176992051359532e+18,-0.0022716279956180004,0.00478796996164,-0.0009273200529050001
1.7176992053359532e+18,-0.00012637793551000003,-0.0033296561103380003,1.3172393690000012e-05
1.7176992055359532e+18,-0.00014277262381000001,0.0043655553832500004,-3.836608956045002e-05
1.7176992057359532e+18,-0.0038379672216950003,-0.004187494725894999,0.0009974422398700002
1.7176992059359532e+18,-0.004478178266395,-0.0018173737102199997,0.0004148874199635001
1.7176992061359532e+18,-0.004405353598042106,0.009139604351578949,0.0005528051650736842
1.7176992063359532e+18,-0.003993754088985,-0.00017457157340499985,0.00101266065611
1.7176992065359532e+18,-0.00540126389831,0.006014091126019999,0.0001137166866915001
1.7176992067359532e+18,-0.008919244725,-0.00239264625118,0.00083065235514
1.7176992069359532e+18,-0.0097127343526495,0.0012384810715875,0.001681425003255
1.7176992071359532e+18,-0.0083383972055,-0.00524182773618,0.0018649453064199998
1.7176992073359532e+18,-0.0049631980132499995,0.0034917947368849995,0.000772774429085
1.7176992075359532e+18,0.000216360157266,0.0034117079338989997,-0.000250776845448
1.7176992077359532e+18,-0.0030659346371526316,-0.0009159017107368419,-0.00015802595665526323
1.7176992079359532e+18,0.00196908279321,-0.0016005515119699998,-0.0004539226181505001
1.7176992081359532e+18,0.0047455144114300005,0.0031426956876830004,-0.000838416349165
1.7176992083359532e+18,-0.000745845935335,0.00570446526396,-0.0019914575502889996
1.7176992085359532e+18,0.0021638718201667,-0.0043347200029199996,0.0003239488694589999
1.7176992087359532e+18,0.0013993814703435,-0.00181223391547,0.00053220106055
1.7176992089359532e+18,0.0032475266839150003,-0.0015069383079149997,-0.00045773645404499993
1.7176992091359532e+18,0.00353601509694,-0.00166089081901,-0.00022133045125999999
1.7176992093359532e+18,-0.0022686509180500003,0.006126751157373449,-0.000414922588965
1.7176992095359532e+18,0.000350642606291579,-0.003443252699178946,0.0006099049933526316
1.7176992097359532e+18,0.0005213001859830001,0.0075070941823,0.0001281413482559
1.7176992099359532e+18,0.0016196920419885002,0.0018435102654334999,-0.0007880320539815002
1.7176992101359532e+18,0.0020956575870649994,-4.806881751999977e-05,-0.0005505558801455
1.7176992103359532e+18,-0.005082018265725,-0.003441501606315,0.00037662487025500005
1.7176992105359532e+18,-0.00045380208179500014,-0.0008231717515249998,-3.5023491359999976e-05
1.7176992107359532e+18,-0.0065804236222,0.0031844179961900004,0.0025422227569399996
1.7176992109359532e+18,-0.0034617338213299995,0.0008944464148550001,-0.0004888200783099999
1.7176992111359532e+18,-0.0021597349674667894,0.003536449169105264,0.0016350949575105263
1.7176992113359532e+18,0.00951407824123,-0.0060379754280300004,0.0026388735742474993
1.7176992115359532e+18,0.0311997250655,-0.00295508767005,0.002304803184245
1.7176992117359532e+18,0.04193052574950001,-0.0064743987632,0.002745635178875
1.7176992119359532e+18,0.033762371913,-0.003671926132045,0.0020854243077549997
1.7176992121359532e+18,0.05495712794350001,-0.009557520550815001,-0.0049799597006645
1.7176992123359532e+18,0.010286465427595001,-0.003963773592900001,0.00180894725485
1.7176992125359532e+18,-0.006721307093045,-0.002699019526965,0.001259366911835
1.7176992127359532e+18,-0.021220389410210528,-0.008717961401526314,0.0024988325312578948
1.7176992129359532e+18,-0.007873209076704999,0.007178995873775,0.0016303982352800007
1.7176992131359532e+18,0.01834551100665,0.0021575128428999992,0.0016450137131380001
1.7176992133359532e+18,-0.00499129155576,-0.0007621075716544999,0.00023969851898999992
1.7176992135359532e+18,-0.021240406762249996,-0.0023494170980300003,0.0030680813592675006
1.7176992137359532e+18,-0.007859129226100001,0.006228554132569999,-0.0014694277663049999
1.7176992139359532e+18,-0.0095056343591,-0.001963533053625,0.0010553933680347
1.7176992141359532e+18,-0.0057569296796000004,0.0061946761333775,-0.00043164851372999997
1.7176992143359532e+18,-0.003838343359665,0.00023565987350200002,0.00029111612818700003
1.7176992145359532e+18,-0.0046756243038684215,0.006326636568826263,-0.00033724403594684196
1.7176992147359532e+18,-0.002328763727635,-0.000537642312695,0.0002523014089115
1.7176992149359532e+18,-0.030801904669149997,-0.049879548837295,0.014951761066469999
1.7176992151359532e+18,-0.0180784710665,-0.11434010499600003,0.0588281083855
1.7176992153359532e+18,0.011203724170199998,-0.06344670986125,-0.01371171558242
1.7176992155359532e+18,-0.05757502969300001,-0.0671896181045,-0.011250021266500002
1.7176992157359532e+18,0.07240572599905001,0.1151353198655,-0.021368897617550002
1.7176992159359532e+18,0.07403151285761501,-0.0746015626919,-0.04167477088
1.7176992161359532e+18,-0.026225702004817372,0.032519767981,0.032453959171238944
1.7176992163359532e+18,-0.028602006775600004,0.012489417381000002,0.05842993079895
1.7176992165359532e+18,-0.005381604644514999,-0.01823196362195,0.007075288298874998
1.7176992167359532e+18,-0.02287308110444,0.10094165865625,0.033370586391000004
1.7176992169359532e+18,-0.0177289548322,0.12143105682649999,-0.03360540189275
1.7176992171359532e+18,-0.031876982840745,-0.0546447625395,-0.05353608817955
1.7176992173359532e+18,0.004590234462672,-0.047628695121699996,0.005077377870300001
1.7176992175359532e+18,-0.01460167692222,0.02451798648188,-0.006637376453799998
1.7176992177359532e+18,0.004199072350421051,0.011308767723105262,0.017012906750578944
1.7176992179359532e+18,-0.0392730392284,-0.053210945910350006,-0.028735227137050002
1.7176992181359532e+18,-0.03565796646249999,0.023111635469270496,-0.0190302729614
1.7176992183359532e+18,-0.00393781026335,-0.050012393062499994,0.011374771035599997
1.7176992185359532e+18,-0.0008246259062499999,0.002937385788800001,-0.0045012741816
1.7176992187359532e+18,0.013760264753465002,-0.01536442188097,0.00489782217178
1.7176992189359532e+18,0.0018889867585900003,-0.014431128720980003,0.003931136429399999
1.7176992191359532e+18,-0.000892655761665,-0.011354727100500001,0.021261948393800002
1.7176992193359532e+18,-0.0063838207857425016,-0.0091023823359,-0.0028514100470150004
1.7176992195359532e+18,0.002780700286368421,-0.0018200750433263158,-0.00011248966246473682
1.7176992197359532e+18,0.0021731963032950003,-0.007915532473099998,0.008111257106390001
1.7176992199359532e+18,0.0011251035378,-0.001413503440385,-0.0025617011361999996
1.7176992201359532e+18,-0.016794248087729998,0.016411065717555,0.0222541554126
1.7176992203359532e+18,0.02856808213965,0.020061132407999997,-0.1353714714966
1.7176992205359532e+18,-0.20432947991829997,-0.04474184913445,0.22829042076535
1.7176992207359532e+18,0.56691340953,-0.08880639421650002,-0.04795434237879999
1.7176992209359532e+18,0.18567449711349998,0.13512321896975,-0.04816864998
1.7176992211359532e+18,-1.0945481737210525,-0.18161592276894736,-0.15749691823773684
1.7176992213359532e+18,0.180197362141,-0.07667702544500002,0.07739001150599999
1.7176992215359532e+18,0.181366216297,0.036113804764449996,-0.03100301249095
1.7176992217359532e+18,0.6682248264599999,0.13026834021610498,-0.17696991489499997
1.7176992219359532e+18,-0.7797753483485,-0.39060057663625,-0.020685562120150002
1.7176992221359532e+18,-0.33496484198349996,0.03478228864849996,0.25590972318340005
1.7176992223359532e+18,0.000865437643,-0.20580322691199998,-0.18956651238549999
1.7176992225359532e+18,0.842034739265,0.16063712276099998,-0.20546630192999998
1.7176992227359532e+18,-0.2807471654142106,0.1643407276347368,-0.07337327066473684
1.7176992229359532e+18,-0.570212322820802,-0.44864878619799986,0.023083972649
1.7176992231359532e+18,0.145037923001,0.185823968876,-0.022757286390500002
1.7176992233359532e+18,0.6256454795699999,0.09132126760454999,-0.20564958788799997
1.7176992235359532e+18,0.06883557202090004,0.2763886403245,-0.099617443883
1.7176992237359532e+18,-0.5825823061431998,-0.49301352391700004,0.15430648122649998
1.7176992239359532e+18,0.0024204738647500028,0.047433005596400006,0.10630260649800001
1.7176992241359532e+18,0.0847364704424,0.20631634378750002,-0.0560329869405
1.7176992243359532e+18,0.578525081265,0.2816330239175,-0.14693814142849998
1.7176992245359532e+18,-0.2942018557863158,-0.32368424855452627,-0.24839760107736844
1.7176992247359532e+18,-0.04369050098950004,0.13528892504985002,0.15341307130749998
1.7176992249359532e+18,-0.025849800194500006,-0.4587047941915,-0.0528930962035
1.7176992251359532e+18,-0.23714719880399998,-0.127869109731,0.05631603319575
1.7176992253359532e+18,0.009614055254549999,0.11981496252050003,0.0376046934635
1.7176992255359532e+18,0.0448739722411,0.142481276394,0.03516634572449499
1.7176992257359532e+18,-0.09617731031650002,-0.08519198512,-0.04641280221505
1.7176992259359532e+18,0.014658980956224999,0.10166216520700003,0.028789558192750003
1.7176992261359532e+18,0.06676253710921051,0.18107971479573687,-0.042138726523315795
1.7176992263359532e+18,-0.006210761004600002,0.019451515239954992,-0.15361001408449998
1.7176992265359532e+18,0.0385136351455,-0.042290206396535,0.018670313537699997
1.7176992267359532e+18,-0.08042789329649999,0.007206338621949998,-0.11096867956300001
1.7176992269359532e+18,-0.0193527595841355,-2.2475747999999018e-05,-0.006347629381350001
1.7176992271359532e+18,-0.005634429702100001,-0.029088744800249998,0.042408291809499996
1.7176992273359532e+18,0.028182108409600004,-0.0174794367516,0.06039257049450001
1.7176992275359532e+18,0.03562587399565,0.037916234135999996,0.05419133640850001
1.7176992277359532e+18,0.01084618330865,0.014436945342805005,0.053454503976000003
1.7176992279359532e+18,-0.05771792354078947,0.029968111666578943,-0.003000796146894736
1.7176992281359532e+18,-0.030315723235824998,0.04190255634065,0.012390951673265
1.7176992283359532e+18,-0.024555834417550004,0.07623547484,0.019885013229049998
1.7176992285359532e+18,0.004434400378274999,0.047334907459100004,0.00817109672405
1.7176992287359532e+18,-0.007484698831175,0.0114180884088,0.007810950279550001
1.7176992289359532e+18,-0.01122400801385,-0.001028786366815,0.006209390493389999
1.7176992291359532e+18,-0.00844190508412,0.011973750370049998,0.00321358956898
1.7176992293359532e+18,-0.011405874788700001,0.004180384997655,0.006671202136284998
1.7176992295359532e+18,-0.026249738017157895,0.01275725005694737,-0.00515485422568421
1.7176992297359532e+18,-0.01201623599065,0.0157922686536,0.0034330445342820003
1.7176992299359532e+18,-0.0050665213845900005,0.006455835537025001,0.0010578984627615002
1.7176992301359532e+18,-0.006758556026019999,0.012999216234349997,0.00026338531162499993
1.7176992303359532e+18,-0.008848720742505,4.737175782500002e-05,0.0021372640738400004
1.7176992305359532e+18,-0.00666605682342,0.01046157944918,0.0006158542819800001
1.7176992307359532e+18,-0.0112177319478,0.00458704675585,-0.0018090536004359999
1.7176992309359532e+18,-0.0037079610513000003,-0.012731033668755002,-0.013942890239999997
1.7176992311359532e+18,0.0033243643615578945,0.003772472864636842,0.001919282771894737
1.7176992313359532e+18,-0.0037630043345449997,0.0015253345596100004,-0.003904339530994
1.7176992315359532e+18,-0.0079890857447,0.013471639995100001,0.000509031605795
1.7176992317359532e+18,-0.00727446837211,0.014410602465385,0.00011434367624805
1.7176992319359532e+18,-0.015577820129150002,-0.009821037226849998,0.0060427899704500005
1.7176992321359532e+18,-0.00880634965095,-0.0009765927325150001,-0.0015120277298620003
1.7176992323359532e+18,0.0006416115326999995,-0.031724643054310005,0.01036677700445
1.7176992325359532e+18,0.1317610669975,-0.12362044372595,-0.013304124912545002
1.7176992327359532e+18,0.06634600358603501,-0.06126238424235,-0.06530973017365001
1.7176992329359532e+18,-0.005718157492231578,-0.08802761735468422,-0.004998918058894737
1.7176992331359532e+18,0.040852020635,-0.138676936187,0.042033914918769996
1.7176992333359532e+18,0.005550080747450001,-0.05347727648637499,0.0171746763053
1.7176992335359532e+18,-0.020278963516259997,-0.05431030387850001,0.0246403547696
1.7176992337359532e+18,-0.012805331614590002,-0.06303459271244999,0.011240611901749997
1.7176992339359532e+18,0.056342050712085,0.019491947162599995,0.056791193316199994
1.7176992341359532e+18,0.060318043875049986,-0.10872253432049998,-0.04419386405745
1.7176992343359532e+18,0.048166045733499994,-0.042511515878850006,-0.01696005590555
1.7176992345359532e+18,0.027168195166310527,0.013086522970526315,-0.034456027842368425
1.7176992347359532e+18,-0.007115297764050001,0.04968789974702501,0.017786813852970002
1.7176992349359532e+18,-0.0346496806955,-0.028969665033949998,-0.007313623417979999
1.7176992351359532e+18,-0.011592342681300003,-0.02714072041888,0.0259423538808
1.7176992353359532e+18,-0.01985631343065,0.07071108398847001,0.02255129134215
1.7176992355359532e+18,0.030189757979950004,0.012136533976299994,0.0032111882693
1.7176992357359532e+18,-0.009494589978950002,-0.01640359964244,0.034347361210300006
1.7176992359359532e+18,0.047166613395950005,-0.07810192865164998,-0.018547470541750002
1.7176992361359532e+18,-0.026565285816105254,0.06652558249647368,0.009079722492473682
1.7176992363359532e+18,0.06785669687200001,-0.06139906458754999,-0.024926449263349998
1.7176992365359532e+18,0.16745779289899998,-0.054762908165,-0.17033544964449998
1.7176992367359532e+18,-0.08200586957502001,0.0878796720875,-0.13721246581484997
1.7176992369359532e+18,0.019497196614500004,0.11395143345499999,-0.05963281209404999
1.7176992371359532e+18,-0.03673520162834999,-0.046765651643499995,-0.010465613291099999
1.7176992373359532e+18,-0.0305033699024,0.077466628231,0.21324451314540002
1.7176992375359532e+18,-0.09677139777285,0.0372323846673,0.03389002159050001
1.7176992377359532e+18,-0.06559450281525,0.04231639041463,-0.20706334001965
1.7176992379359532e+18,-0.04532142617873685,0.0833043698963158,-0.04647808899068421
1.7176992381359532e+18,-0.13130786036550002,0.010443517215599999,-0.04304658775675001
1.7176992383359532e+18,-0.12587720994050003,0.07712683370449999,0.2487089609715
1.7176992385359532e+18,-0.19285795613050005,-0.11684758113799998,0.16015862580035
1.7176992387359532e+18,0.020168552916999996,0.00624832013265,0.03394921519875
1.7176992389359532e+18,0.0017935223413499991,-0.0020712362834800005,0.023869156022885
1.7176992391359532e+18,0.024072815384649997,-0.0659462137135,0.0103333876114495
1.7176992393359532e+18,0.0395946093165,-0.10053131664400002,0.0182917056152
1.7176992395359532e+18,0.060558561896315796,-0.06787309474310525,0.03119042823294736
1.7176992397359532e+18,-0.013909147307200002,0.04655031357,0.03588639714275001
1.7176992399359532e+18,0.03225109961580001,-0.07295911134424998,0.0222291135482
1.7176992401359532e+18,-0.07388427171791996,0.12818182433679998,0.037842366435900006
1.7176992403359532e+18,0.05573318819795,0.133801787068,0.0526261480057
1.7176992405359532e+18,0.0334886431933,0.08148941635350002,-0.025251502753599997
1.7176992407359532e+18,0.0542529236533,0.1179498169535,-0.013695546588795002
1.7176992409359532e+18,0.049938107375,0.082377842068,-0.039476680640999996
1.7176992411359532e+18,0.045655508475684205,0.04948968626247369,-0.016066762128210524
1.7176992413359532e+18,-0.016067170969800003,0.012183519220950002,0.0131438071717755
1.7176992415359532e+18,-0.07593109459299999,-0.0027733530044499995,0.0242952015479
1.7176992417359532e+18,-0.03503395331775,-0.0206620140231,-0.003720785676499999
1.7176992419359532e+18,-0.015597856625110002,0.017051545695049998,-0.017144668417085
1.7176992421359532e+18,0.0003070820833000002,0.05798124317000001,-0.014787126845140003
1.7176992423359532e+18,0.0024587980006799998,0.0522069139405,0.00620359156681
1.7176992425359532e+18,-0.003423637244556,0.02707721185932,-0.002156286337575
1.7176992427359532e+18,0.0021703394832749997,0.00447680093381,-0.0110255956187
1.7176992429359532e+18,-0.02206963165838421,0.021147070722315787,0.0003514632117368419
1.7176992431359532e+18,-0.022651681419945,0.027581558026149998,-0.00131517358823
1.7176992433359532e+18,-0.036697449162000004,0.010177152441169998,0.007753921206849999
1.7176992435359532e+18,-0.03424633788,0.018600843194049997,-0.0026789190015749993
1.7176992437359532e+18,-0.021277800737599998,0.00294899032425,0.000646270369202
1.7176992439359532e+18,0.00229962494844,-0.0008534076277804999,-0.002580048446515
1.7176992441359532e+18,0.025399322109799997,-0.007347220974299998,-0.00545848848965
1.7176992443359532e+18,0.022259769797199996,-0.013995407311749999,0.00454885282086
1.7176992445359532e+18,0.013108056210842106,0.0013915815415263158,0.0002796684244947369
1.7176992447359532e+18,0.01035172189568695,-0.0013522394120999998,0.0029506718041299998
1.7176992449359532e+18,0.016387620276469998,-0.00496596109545,0.01053729811727
1.7176992451359532e+18,0.0058469177689040005,-0.00504625991488,-0.002408388210426
1.7176992453359532e+18,0.011730693117835,0.010020172595424998,0.0040729022465850005
1.7176992455359532e+18,0.0039566236662,0.008144479280278399,-0.00525001414325
1.7176992457359532e+18,0.00743796613525,-0.002758837281985,0.001954469643458
1.7176992459359532e+18,0.0036938527599299996,0.006222266796652,-0.002913163183268
1.7176992461359532e+18,0.00141652256705,0.002290436904905,-0.00048639783633500007
1.7176992463359532e+18,0.00952783044363158,-0.0018454574073684213,0.0013498613905
1.7176992465359532e+18,0.004965370660655,0.007299478188665001,0.000675573991605
1.7176992467359532e+18,0.0055244228802,0.003681397974180001,-0.0005885473103360001
1.7176992469359532e+18,-0.002660743682545,0.0055567873988000005,0.00122958282018
1.7176992471359532e+18,0.0019501780742300003,0.006680188118999999,0.0009522359352250002
1.7176992473359532e+18,-0.001003662776415,0.008956587593759998,0.00046141282656999997
1.7176992475359532e+18,-0.021588104009100002,0.0051595506488,-0.0012343664420199998
1.7176992477359532e+18,-0.021134933549600006,0.0036550822435999996,0.0093183734216
1.7176992479359532e+18,-0.017731166174684208,-0.0021848870003105263,-0.001242118605757895
1.7176992481359532e+18,-0.009297853463545001,-0.00018371421634999995,0.0006613985169593499
1.7176992483359532e+18,-0.013490029145099999,-0.005151015043124999,0.0023181050667199997
1.7176992485359532e+18,-0.01474172850085,0.008927657175600002,-0.0008963036351
1.7176992487359532e+18,-0.015212150361149998,0.003629245853769999,-0.0019514138577900002
1.7176992489359532e+18,-0.014891493458949998,-0.003129136399285,0.001010978897186
1.7176992491359532e+18,-0.0120745215683,-0.012970582943200002,0.0007180026033750001
1.7176992493359532e+18,-0.001533739967312,-0.0035419193443,0.0017066427274400008
1.7176992495359532e+18,-0.0011886311330000002,0.006709050632082105,-0.0007255452464052632
1.7176992497359532e+18,0.004470208706225,0.002106567192605,-0.0006171255955500001
1.7176992499359532e+18,0.01636802177005,0.004024418396799999,0.0011301078368978997
1.7176992501359532e+18,0.00846582006195,-0.0068273252574560005,0.0014186316519399999
1.7176992503359532e+18,0.0016099760650900002,0.0019891361473,-0.0016245340230245
1.7176992505359532e+18,0.00188485551608,0.00268910517967,0.00010938229976400014
1.7176992507359532e+18,0.007156638964250001,-0.008993807982697,0.0008538804599250002
1.7176992509359532e+18,0.0011049113584474999,0.00027952120843499986,0.000660078763035
1.7176992511359532e+18,0.0065913782916249995,0.0002824851543285002,-0.0005990485660954999
1.7176992513359532e+18,0.0013806456703157894,-0.0015530859148736845,-0.00013047520453684207
1.7176992515359532e+18,0.005419267853680001,-0.001255078718787,0.00043590350548649995
1.7176992517359532e+18,0.006294109765389999,0.006152960658003501,0.0009710699785000002
1.7176992519359532e+18,0.00191372141695,0.00862132052419,-0.0028497308608999997
1.7176992521359532e+18,0.006928039434790001,-0.002944020251512999,0.0012226402760044997
1.7176992523359532e+18,-6.432982626200008e-05,0.0028087705605249996,0.0003685963224095
1.7176992525359532e+18,0.002764034923043,0.001369734806715,0.00025382353925
1.7176992527359532e+18,0.004584871395765,-0.004340095457360001,0.0009987343800849998
1.7176992529359532e+18,0.003781340685589474,0.0038797376971894735,2.0289205434210514e-05
1.7176992531359532e+18,0.007306337414815,0.006087647657799999,-0.00025635180057000003
1.7176992533359532e+18,-0.00019374471194650021,-0.00296758423779,-0.00169667848394
1.7176992535359532e+18,-0.017482057633999997,-0.003579756198245001,0.0025046468711499995
1.7176992537359532e+18,-0.015836028056,0.0008690336137441499,-0.00024048201754499994
1.7176992539359532e+18,-0.012937374913758001,0.00647716574594,-0.0026019542129
1.7176992541359532e+18,-0.0149839572146,-0.00548022469752,0.0036146884784299996
1.7176992543359532e+18,-0.013195776124949998,0.003216811479245,-0.000646428857075
1.7176992545359532e+18,-0.016641196452421052,0.0028388969801105266,0.0009443971180994739
1.7176992547359532e+18,-0.014738665987550002,-0.006618565891690001,0.00028409466608899996
1.7176992549359532e+18,-0.02013489457385,0.0025306884316499993,-0.0007298212730649999
1.7176992551359532e+18,0.065099816118,-0.046116537227749985,-0.0224829886104
1.7176992553359532e+18,0.191631824525,-0.11009142205605,0.0730523523156
1.7176992555359532e+18,0.35477657617499997,0.0181735443,0.2001971649483
1.7176992557359532e+18,0.06286772544900002,0.23101166263950007,0.09701758045500002
1.7176992559359532e+18,-0.367769315085,-0.3274487163766501,-0.28796745062900003
1.7176992561359532e+18,0.27118189711214996,0.18814637996650002,-0.07111038564700001
1.7176992563359532e+18,0.4821501789736842,-0.11858203029105263,0.23308609489631577
1.7176992565359532e+18,0.05967353740500003,-0.5560207825721,0.47647453891800007
1.7176992567359532e+18,-0.5108411178299999,-0.01604816876965,-0.16391405202599998
1.7176992569359532e+18,0.46752591971050006,0.1468547571415,-0.0261054405905
1.7176992571359532e+18,-0.1795522355100001,0.34704395380500014,0.425674061485
1.7176992573359532e+18,0.1902163177455,-0.058950270735,0.18987939021499997
1.7176992575359532e+18,-0.4095469380149999,-0.2631703849815,-0.24850799889449998
1.7176992577359532e+18,0.45804468094999995,0.592885272205,0.05134966892445
1.7176992579359532e+18,-0.36495040516842103,-0.769468214936842,0.22723612071842106
1.7176992581359532e+18,0.18832748200550004,0.21094172427099997,0.04193295947550001
1.7176992583359532e+18,-0.06416144109649999,-0.08763817118375,-0.192919528302
1.7176992585359532e+18,0.6166356429500001,0.20791574030745,-0.19417212306500004
1.7176992587359532e+18,-0.6705834386995,0.06092981214500011,-0.1074649575193
1.7176992589359532e+18,0.06685799461400002,-0.07432087847249998,0.298467900801
1.7176992591359532e+18,-0.13803437463700002,-0.01565793161115001,-0.13915254440275
1.7176992593359532e+18,0.556288437133,0.03875180771900001,-0.1557397523915
1.7176992595359532e+18,0.8080453840947368,0.8311452379052632,-0.24196919132157893
1.7176992597359532e+18,-1.0516230527000001,-0.5321283779700001,0.1648606079108
1.7176992599359532e+18,-0.3724460749585,-0.357289843766,0.04264296366899999
1.7176992601359532e+18,-0.140037896667,-0.057034731653499995,-0.14542013601450005
1.7176992603359532e+18,-0.034707800319799996,-0.0015086491080000027,-0.049606951419500014
1.7176992605359532e+18,-0.05486556310599998,0.2550743915145,-0.022697358583999995
1.7176992607359532e+18,0.003851552399500001,0.050830180102,0.08332043872165
1.7176992609359532e+18,0.05498468093750001,-0.04625897523795001,-0.042415920736
1.7176992611359532e+18,0.036342829466500005,-0.36369994385599996,-0.03643670792130001
1.7176992613359532e+18,0.036263616284526325,-0.08839538759462104,-0.04083625132221052
1.7176992615359532e+18,0.1187242334715,-0.020699151842349994,0.19248140622250004
1.7176992617359532e+18,0.01532832183775,-0.21466733700449997,0.18372083632110003
1.7176992619359532e+18,0.0657198861245,-0.5078910506805,0.299941868731
1.7176992621359532e+18,-0.31514647292945,-0.15629804308685002,-0.35725963387575
1.7176992623359532e+18,-1.987850147465,-0.8234746538265,-2.20482068946
1.7176992625359532e+18,-0.693135110985,-1.3797391399435002,-3.9237968801499994
1.7176992627359532e+18,-2.5468502164149998,1.495877496109,2.379081368433
1.7176992629359532e+18,1.9547946264421052,5.034817438315789,2.0713827797894737
1.7176992631359532e+18,-1.8938432096849998,-0.144201123805,1.9448329172800005
1.7176992633359532e+18,1.6830979972549998,1.0481870882300002,1.23067307327
1.7176992635359532e+18,-0.20573695721050003,-0.24418443814600002,0.22720545585099994
1.7176992637359532e+18,-0.01141848117335,0.07115895711650001,-0.18226516750600003
1.7176992639359532e+18,-0.09426307855699999,-0.19173620231400001,-0.07687274601595
1.7176992641359532e+18,0.08019510619599998,0.1482333471075,0.046781655867
1.7176992643359532e+18,0.12468187366885002,0.22220218200400002,0.031384409801105004
1.7176992645359532e+18,0.09836440782416667,0.16183201347916673,0.021965340400499994
1.7176992647359532e+18,,,
