Timestamps,Acc_X,Acc_Y,Acc_Z,Label,Delta Time
1.7177514218158597e+18,-1.3432017975099997,3.43239978795,9.1715776063,1,13000000000
1.7177514220158597e+18,-0.8685014419374999,2.0524045027495,10.11401779215,1,13000000000
1.7177514222158597e+18,-1.396767906185,0.7051236877500001,9.1051232982,1,13000000000
1.7177514224158597e+18,-1.90211702725,0.5825585632299999,9.8204258198,1,13000000000
1.7177514226158597e+18,0.8812998276052999,1.6131504363399998,10.004902198099998,1,13000000000
1.7177514228158597e+18,0.3952605514199999,1.126811782732,11.330882309549995,1,13000000000
1.7177514230158597e+18,2.4141647185755,3.3640743713000005,8.33145714595,1,13000000000
1.7177514232158597e+18,-4.4875855179,2.458427673275,8.496533866750001,1,13000000000
1.7177514234158597e+18,-4.672645683200001,0.1295630722065,8.12584471895,1,13000000000
1.7177514236158597e+18,-4.134477310049999,1.83373173525,9.15346527105,1,13000000000
1.7177514238158597e+18,-7.388859786999999,0.9402846680275,7.549850006,1,13000000000
1.7177514240158597e+18,-8.2196321869,3.4329910583499994,2.52990403745,1,13000000000
1.7177514242158597e+18,-6.996346023700001,5.40835826115,-1.30182783506,1,13000000000
1.7177514244158597e+18,-7.03422475425,5.98234714505,-2.5818984146,1,13000000000
1.7177514246158597e+18,-6.1698098145,6.570316955600001,-3.29280757135,1,13000000000
1.7177514248158597e+18,-4.343487670899999,6.50379528805,-3.84241964725,1,13000000000
1.7177514250158597e+18,0.5052817611649999,8.3437540741,-4.29655277253,1,13000000000
1.7177514252158597e+18,8.772042653473683,8.440820907263157,0.5148267805399999,1,13000000000
1.7177514254158597e+18,13.5123035205,10.915398811849998,-6.15549957285,1,13000000000
1.7177514256158597e+18,6.127141044450001,9.10496612555,2.881043838465,1,13000000000
1.7177514258158597e+18,2.361721275365,7.7619439545,4.022382911749999,1,13000000000
1.7177514260158597e+18,-1.191941345275,8.710641128899999,4.6192741699,1,13000000000
1.7177514262158597e+18,-2.0217707061800003,7.3111414028000015,3.7456907959,1,13000000000
1.7177514264158597e+18,-1.8746865692250003,8.08519674675,4.159318153300001,1,13000000000
1.7177514266158597e+18,-0.8018076324365,9.16016384035,5.182470497260001,1,13000000000
1.7177514268158597e+18,-0.0524808654749999,8.044279335,5.771151329149999,1,13000000000
1.7177514270158597e+18,-0.1363290023741,7.14304845425,6.06635245515,1,13000000000
1.7177514272158597e+18,-0.0735794906585,8.211376854000001,6.186619857799999,1,13000000000
1.7177514274158597e+18,-0.05639522553,7.785961509750001,6.24454190825,1,13000000000
1.7177514276158597e+18,-0.0822988586429999,7.7228003540499985,6.5928750457500005,1,13000000000
1.7177514278158597e+18,0.62988265218,7.601604881249999,6.8152451247000005,1,13000000000
1.7177514280158597e+18,1.060686790485,5.491936958249999,7.8558287201,1,13000000000
1.7177514282158597e+18,0.636004920957,3.6864514847,8.83405199435,1,13000000000
1.7177514284158597e+18,-0.1952315139740999,2.59355168165,9.1915835037,1,13000000000
1.7177514286158597e+18,-0.4231385000143158,1.5282272981052634,9.576493474105265,1,13000000000
1.7177514288158597e+18,0.543714340195,1.4788871383000002,9.7549819108,1,13000000000
1.7177514290158597e+18,1.35162927249,2.1867052231,9.68994964615,1,13000000000
1.7177514292158597e+18,0.9682540054165,2.2904095688000004,9.4902274704,1,13000000000
1.7177514294158597e+18,0.9045464859150002,2.0356543351000003,9.5505445404,1,13000000000
1.7177514296158597e+18,0.947507148725,2.0349507981,9.56507183055,1,13000000000
1.7177514298158597e+18,0.7739355926500001,2.2200109634,9.563470161450002,1,13000000000
1.7177514300158597e+18,0.88109026338,1.8507812804,9.61375060265,1,13000000000
1.7177514302158597e+18,0.9979297943599998,2.0222048035,9.56047638705,1,13000000000
1.7177514304158597e+18,0.99579673007,2.14184351355,9.516520294249998,1,13000000000
1.7177514306158597e+18,1.209050765945,1.8861302719,9.60054057315,1,13000000000
1.7177514308158597e+18,0.667484458915,2.2008208694,9.54800731655,1,13000000000
1.7177514310158597e+18,0.879668220485,1.98366744215,9.6028607483,1,13000000000
1.7177514312158597e+18,0.8754919052350001,2.21370906835,9.543441810649998,1,13000000000
1.7177514314158597e+18,1.09748776247,1.7131050796499998,9.5795841522,1,13000000000
1.7177514316158597e+18,0.77380835725,2.50426235955,9.4339744492,1,13000000000
1.7177514318158597e+18,1.3755046233634498,2.6628575592,9.690975013550002,1,13000000000
1.7177514320158597e+18,0.1073504478789474,2.390497356263157,9.363376127789474,1,13000000000
1.7177514322158597e+18,-0.329599594155,2.7501260834000005,9.72899594835,1,13000000000
1.7177514324158597e+18,1.5858397292435005,1.049332901055,8.087120246849999,1,13000000000
1.7177514326158597e+18,0.0486114120715,0.396540389984,8.7073629456,1,13000000000
1.7177514328158597e+18,-0.488965690606,-1.7251999282120505,9.6340334245,1,13000000000
1.7177514330158597e+18,-0.368825523347,-2.87946462245,9.732625901,1,13000000000
1.7177514332158597e+18,0.3774550781589999,-4.3647958602,10.2655551677,1,13000000000
1.7177514334158597e+18,0.93581645962105,-4.406274604749999,10.9181680534,1,13000000000
1.7177514336158597e+18,-0.486151542627,-3.1961385955,9.7960265578,1,13000000000
1.7177514338158597e+18,0.1666484527494999,-1.43570942685,9.283866600250002,1,13000000000
1.7177514340158597e+18,-0.0347876586754999,0.03567082215105,7.0810698394500005,1,13000000000
1.7177514342158597e+18,-0.623782836933,-1.5910039901200002,8.805843154949999,1,13000000000
1.7177514344158597e+18,-1.1639720077099998,-3.5140924072500006,10.1033674388,1,13000000000
1.7177514346158597e+18,-1.466567756595,-4.9404163513,11.266516157999998,1,13000000000
1.7177514348158597e+18,-1.8804421006,-3.1178064879500003,9.3153611065,1,13000000000
1.7177514350158597e+18,-2.62083993525,-1.618479354955,9.8427219552,2,13000000000
1.7177514352158597e+18,-1.041818527255,-0.06081852722595,7.420810844350001,2,13000000000
1.7177514354158597e+18,-0.5389581780503052,-0.665319093395263,7.619258302526315,2,13000000000
1.7177514356158597e+18,-0.972108489925,-2.99456776435,9.97433576195,2,13000000000
1.7177514358158597e+18,-0.44907364653485,-4.01551219945,11.458686539000002,2,13000000000
1.7177514360158597e+18,-0.4608092422279999,-4.21524185945,10.57731935125,2,13000000000
1.7177514362158597e+18,-0.8262967071750001,-2.5784331207,9.39371566785,2,13000000000
1.7177514364158597e+18,-0.445960121117,-1.0311307525875,9.18568576805,2,13000000000
1.7177514366158597e+18,0.0173339538555,0.3043620758024999,6.70423596965,2,13000000000
1.7177514368158597e+18,-0.5754408645165001,-1.52509604649,8.866983513049998,2,13000000000
1.7177514370158597e+18,-0.22070853423048,-3.61370276645,10.81109571185,2,13000000000
1.7177514372158597e+18,-0.996867004415,-4.396844215400001,11.6095578,2,13000000000
1.7177514374158597e+18,-0.63420117187,-2.93071055595,9.76787759395,2,13000000000
1.7177514376158597e+18,-0.726454330417,-1.6318914643,9.58587856295,2,13000000000
1.7177514378158597e+18,0.135356025694,0.1798734511905,7.050196540900001,2,13000000000
1.7177514380158597e+18,-0.594870460478,-0.692901603709,8.375218643100002,2,13000000000
1.7177514382158597e+18,-0.4769606551599999,-2.9112285691000004,10.17119139965,2,13000000000
1.7177514384158597e+18,-1.024095382695,-4.1968526001,11.7061893545,2,13000000000
1.7177514386158597e+18,-0.6951768723,-3.4800756454000004,10.06984464975,2,13000000000
1.7177514388158597e+18,-0.609839726494737,-1.943345634052632,9.889248359947368,2,13000000000
1.7177514390158597e+18,-0.3891382827687499,-0.608911262474175,8.582911743099999,2,13000000000
1.7177514392158597e+18,-0.265787292484,0.187268074023,6.909025108350001,2,13000000000
1.7177514394158597e+18,-1.0770327987349997,-1.9724782103950005,9.680017799000002,2,13000000000
1.7177514396158597e+18,-0.2906131668275999,-3.5466272505999994,11.090100518,2,13000000000
1.7177514398158597e+18,-0.7374639358950001,-3.93598258215,10.929709053500002,2,13000000000
1.7177514400158597e+18,-0.3661460952675,-2.0902757491,9.8770979691,2,13000000000
1.7177514402158597e+18,-0.4619094543365,-1.17941988371,9.54288047755,2,13000000000
1.7177514404158597e+18,-0.352269950865,0.2326986007699999,7.0734806213,2,13000000000
1.7177514406158597e+18,-0.539291038515,-0.475471252459,8.311211746250002,2,13000000000
1.7177514408158597e+18,-0.458212142975,-3.19904255685,10.326358727000002,2,13000000000
1.7177514410158597e+18,-0.0426388320589999,-4.36960086825,11.754448997,2,13000000000
1.7177514412158597e+18,-0.8197403412100002,-3.03416043085,10.1568287656,2,13000000000
1.7177514414158597e+18,-0.4119283904759999,-1.67712739565,9.97423846435,2,13000000000
1.7177514416158597e+18,-0.60095530701,-0.6316789169375,8.71803575145,2,13000000000
1.7177514418158597e+18,-0.318073562629895,0.152263366679,6.944284286449999,2,13000000000
1.7177514420158597e+18,-0.8723259887200001,-1.5671810302725002,9.445403183250002,2,13000000000
1.7177514422158597e+18,-0.1070038002494736,-3.128541532842105,10.887987262631578,2,13000000000
1.7177514424158597e+18,-0.397588211043,-3.9437289734,11.262175184850005,2,13000000000
1.7177514426158597e+18,-0.6404506759549998,-2.4110511932,9.75739189885,2,13000000000
1.7177514428158597e+18,-0.6660025405490001,-1.1226130143500002,9.94785582735,2,13000000000
1.7177514430158597e+18,-0.3675382003555,0.2500475234925,7.504187461849999,2,13000000000
1.7177514432158597e+18,-0.414974555964,0.026188041704,8.14830551145,2,13000000000
1.7177514434158597e+18,-1.0546468505,-2.6314453811500003,9.833703208749998,2,13000000000
1.7177514436158597e+18,-0.2113829269434999,-3.7277730561,11.4659090195,2,13000000000
1.7177514438158597e+18,-0.9229731673755,-3.33363517,10.38690033025,2,13000000000
1.7177514440158597e+18,-0.3622990951485,-1.7323251113000002,10.0972152328,2,13000000000
1.7177514442158597e+18,-0.7121515732500001,-0.7993003464150001,9.47414341735,2,13000000000
1.7177514444158597e+18,-0.5296585693339999,0.38719232939,7.10448115545,2,13000000000
1.7177514446158597e+18,-0.663629974375,-0.7979232100999999,8.58056911465,2,13000000000
1.7177514448158597e+18,-1.09902207187475,-2.880939056450001,10.30207921685,2,13000000000
1.7177514450158597e+18,-0.0625399475102999,-3.7639677887,11.5109279025,2,13000000000
1.7177514452158597e+18,-0.6864649886537999,-3.02203564465,9.9561860048,2,13000000000
1.7177514454158597e+18,-0.7189773788000001,-1.58744888303,9.91290351075,2,13000000000
1.7177514456158597e+18,-0.9590780867715,-1.0399623870534,9.42092907725,2,13000000000
1.7177514458158597e+18,-0.4523356789110526,0.1945480667931579,7.706117152210525,2,13000000000
1.7177514460158597e+18,-0.7314165115405,0.0921558608839999,8.240992767400002,2,13000000000
1.7177514462158597e+18,-0.58372613524,-2.5122108307,9.97935781805,2,13000000000
1.7177514464158597e+18,-0.10700498194555,-4.077692894,11.56683664,2,13000000000
1.7177514466158597e+18,-0.340556808475,-3.0637164687,10.21266265915,2,13000000000
1.7177514468158597e+18,-0.1913470916755,-1.5839162292449998,9.68316874695,2,13000000000
1.7177514470158597e+18,-0.8609571304070001,-0.7791597290100001,9.76195740465,2,13000000000
1.7177514472158597e+18,-0.8378002853550001,0.150272506713,7.784397262649999,2,13000000000
1.7177514474158597e+18,-0.5708978118950001,-0.5318964157135,8.08224787895,2,13000000000
1.7177514476158597e+18,-0.6450161818735001,-2.5854909439000004,10.1839373931,2,13000000000
1.7177514478158597e+18,-0.0569191360467,-3.6880456696,11.4823598095,2,13000000000
1.7177514480158597e+18,-0.68669700622,-2.9945004043,9.891183677699996,2,13000000000
1.7177514482158597e+18,0.2814671859678,-1.440716514605,9.78758411375,3,13000000000
1.7177514484158597e+18,-0.4929174728375,-0.990348060645,9.86547463995,3,13000000000
1.7177514486158597e+18,-0.6065087585355,-0.1891092452999999,10.370427084899998,3,13000000000
1.7177514488158597e+18,-0.3307147750915,-0.12065659331,8.4817970124,3,13000000000
1.7177514490158597e+18,-0.6374194793450001,-0.118501075755,7.5612113803,3,13000000000
1.7177514492158597e+18,-0.4575905407894737,-0.3706292724605263,9.207093224263158,3,13000000000
1.7177514494158597e+18,0.700213897755,-3.19031570435,10.16738930495,3,13000000000
1.7177514496158597e+18,-0.0042361908354999,-4.42970088965,11.0564579769,3,13000000000
1.7177514498158597e+18,-0.6153403930604999,-3.37613928215,9.6890365443,3,13000000000
1.7177514500158597e+18,-0.9630598068595,-1.92019942481,9.79982116705,3,13000000000
1.7177514502158597e+18,-0.993042457563,-0.914710349985,9.6803770519,3,13000000000
1.7177514504158597e+18,-0.4200939101249998,-0.268983146671,8.991292510650002,3,13000000000
1.7177514506158597e+18,-0.228874053961,0.1583182754465,8.0364955215,3,13000000000
1.7177514508158597e+18,-0.94244018558,-0.8786727905115,9.46063401015,3,13000000000
1.7177514510158597e+18,-0.381302078238,-3.00776282495,9.924721436000002,3,13000000000
1.7177514512158597e+18,-0.91072863004,-3.7608842011,11.00637961485,3,13000000000
1.7177514514158597e+18,-0.3950060806315,-2.88151535795,9.9763490756,3,13000000000
1.7177514516158597e+18,-0.2878364410464999,-2.4080199967,9.4528876191,3,13000000000
1.7177514518158597e+18,-0.9471329269300002,-0.9108783187499998,9.9115413436,3,13000000000
1.7177514520158597e+18,-0.7611446914365001,-0.66346531678,9.6382247086,3,13000000000
1.7177514522158597e+18,-0.2665132828,0.090165000913,8.8022730791,3,13000000000
1.7177514524158597e+18,-0.43124571992,0.0614397354034999,8.216181861899999,3,13000000000
1.7177514526158597e+18,-0.979799338865263,-1.0401554067536842,9.547556281368422,3,13000000000
1.7177514528158597e+18,-0.270345314008,-2.64282920835,10.1653385701,3,13000000000
1.7177514530158597e+18,-0.315977920522,-3.2403716125500006,10.7818615045,3,13000000000
1.7177514532158597e+18,-0.0774264907805,-2.8539950867000003,10.14123120025,3,13000000000
1.7177514534158597e+18,-0.964025299085,-2.55314321135,9.2126222534,3,13000000000
1.7177514536158597e+18,-0.4802014160490001,-0.97119538887,9.6370945588,3,13000000000
1.7177514538158597e+18,-1.1744502181549998,-0.44067610932793,10.08297983455,3,13000000000
1.7177514540158597e+18,-1.186986648534,-0.0844693450919999,9.895419868050002,3,13000000000
1.7177514542158597e+18,-0.921618484505,-0.0773740996706501,9.7852714232,3,13000000000
1.7177514544158597e+18,-2.8211384125,-0.6832167433600002,9.5650269242,3,13000000000
1.7177514546158597e+18,-5.2543435363,0.86692222592,7.874554779000002,3,13000000000
1.7177514548158597e+18,1.87399800115,3.4424588698500003,9.20852078215,3,13000000000
1.7177514550158597e+18,-1.74833431999,1.3392500152225,9.7046191405,3,13000000000
1.7177514552158597e+18,-0.6816674652085499,1.845422424315,9.5681404496,3,13000000000
1.7177514554158597e+18,-1.229677871615,1.7800533599,9.61645248405,3,13000000000
1.7177514556158597e+18,-1.34350865935,1.8885701981,9.6428201522,3,13000000000
1.7177514558158597e+18,-1.179592025735,2.0633766861000007,9.5192670822,3,13000000000
1.7177514560158597e+18,-1.4498061652631582,1.9336395021578947,9.562438491,3,13000000000
1.7177514562158597e+18,-1.7276922455,1.9041303406500003,9.65307382965,3,13000000000
1.7177514564158597e+18,-1.144579833935,1.51331554415,9.82288071415,3,13000000000
1.7177514566158597e+18,3.042602874825,3.013406089800001,8.393585449149999,3,13000000000
1.7177514568158597e+18,1.9600465622,5.158056266700001,8.376004509050002,3,13000000000
1.7177514570158597e+18,0.24750281525,5.271520316999999,8.6968024062,3,13000000000
1.7177514572158597e+18,-0.4491933975505,4.31299607865,8.524750190750002,3,13000000000
1.7177514574158597e+18,-0.4291051711660699,5.277627616950001,8.21157144925,3,13000000000
1.7177514576158597e+18,0.0225056991589499,5.41594747925,8.321854614299998,3,13000000000
1.7177514578158597e+18,0.4962255935699999,5.35475473025,8.14307389065,3,13000000000
1.7177514580158597e+18,-0.0049322433449999,5.4214260864,8.13872543345,3,13000000000
1.7177514582158597e+18,-0.157929084847,5.4421430054,7.917605255150001,3,13000000000
1.7177514584158597e+18,-0.0435669021315,7.596672637749999,7.518542610199999,3,13000000000
1.7177514586158597e+18,1.32805329885,7.8830047075,7.093456581149999,3,13000000000
1.7177514588158597e+18,1.7574204255,6.94646225745,4.2519455337,3,13000000000
1.7177514590158597e+18,2.2488859175342,6.903172279399999,-0.0064964904549999,3,13000000000
1.7177514592158597e+18,-6.689963150515,3.1858998871449997,-5.917816337550001,3,13000000000
1.7177514594158597e+18,-14.623390502105265,2.7548475808421053,0.4218779634210527,3,13000000000
1.7177514596158597e+18,-11.50074906835,2.5163123017,4.8121331177,3,13000000000
1.7177514598158597e+18,-4.7399981231365,2.34094448092,5.999119766250001,3,13000000000
1.7177514600158597e+18,-2.2461765517670003,3.9198536225000007,8.2523765947,3,13000000000
1.7177514602158597e+18,-1.68517316431,2.643899482755,9.18289407405,3,13000000000
1.7177514604158597e+18,-0.598028892481,4.203349090600001,9.2538390427,3,13000000000
1.7177514606158597e+18,-2.150869743285,4.0063437653000005,8.75006913755,3,13000000000
1.7177514608158597e+18,-2.7806700668499995,4.7813496323,8.01764222715,3,13000000000
1.7177514610158597e+18,-2.7557893066666668,4.921605468799999,7.661338165333333,3,13000000000
1.7177514612158597e+18,,,,3,13000000000
