Timestamps,Gyro_X,Gyro_Y,Gyro_Z,Label,Delta Time
1.7177514218296484e+18,-0.468531781445,-0.0509609823075,-0.11280623190015,1,13000000000
1.7177514220296484e+18,-0.67202752382,-0.0540014825549999,-0.285470091638,1,13000000000
1.7177514222296484e+18,0.305580079914,0.221426294045,-0.0190896402015,1,13000000000
1.7177514224296484e+18,-0.5215995095699999,-0.8017241902995,-0.6114586342085,1,13000000000
1.7177514226296484e+18,0.4059455753755,-0.2785079274775,-0.5381051115689999,1,13000000000
1.7177514228296484e+18,0.3562604379848499,-1.41697564162,-1.0789943944805,1,13000000000
1.7177514230296484e+18,0.52151787430705,1.0716433476149998,-4.2082927226,1,13000000000
1.7177514232296484e+18,-0.005804407585,-0.617179154224,-2.60325629695,1,13000000000
1.7177514234296484e+18,-0.0176656274074999,0.01724595797,-0.78373593838,1,13000000000
1.7177514236296484e+18,-0.4294204540665,1.4760466012925,-0.4275687221006,1,13000000000
1.7177514238296484e+18,-0.71728601736355,2.62667194595,1.4901680231,1,13000000000
1.7177514240296484e+18,1.8078170419000004,1.5576389432500002,1.58370710912,1,13000000000
1.7177514242296484e+18,1.16583015173,0.4908110726599999,0.4137042060450001,1,13000000000
1.7177514244296484e+18,0.4028742402949999,0.3271733686329999,0.5666937217000001,1,13000000000
1.7177514246296484e+18,-0.314395470377,0.62884693444,0.4955397704545,1,13000000000
1.7177514248296484e+18,0.747593990269,0.90140303972,0.239245466397755,1,13000000000
1.7177514250296484e+18,2.60621853475,5.60383846755,2.3265524506000004,1,13000000000
1.7177514252296484e+18,-0.3034446388157895,5.596735515052632,-2.196671030078947,1,13000000000
1.7177514254296484e+18,-0.5173309400850001,-0.8854396827150002,-3.83871405115,1,13000000000
1.7177514256296484e+18,-0.97576999107,-4.310942804850001,-2.94726889145,1,13000000000
1.7177514258296484e+18,-0.5406889583009999,-1.347178334847,-0.9208493622699002,1,13000000000
1.7177514260296484e+18,0.4291055044244999,-0.1011445781325,-0.8504180403365,1,13000000000
1.7177514262296484e+18,0.071082408005,0.165790833541,-0.11414404308348,1,13000000000
1.7177514264296484e+18,-0.55028433576,-0.262817914511,0.6255451042150001,1,13000000000
1.7177514266296484e+18,-0.5999267961439999,0.2281352253344999,0.6337439495360001,1,13000000000
1.7177514268296484e+18,-0.117435622026,0.075342855508295,0.124517158694,1,13000000000
1.7177514270296484e+18,-0.106521429021,0.012459114002265,0.150250492145,1,13000000000
1.7177514272296484e+18,-0.073510552197,0.0236612020752,0.02652585369025,1,13000000000
1.7177514274296484e+18,-0.2820095449650001,0.00581982444845,-0.0086123321448499,1,13000000000
1.7177514276296484e+18,-0.32069146185,-0.042358985136791,0.09709271399485,1,13000000000
1.7177514278296484e+18,-0.70675690473,-0.275264796605,-0.2089299850645999,1,13000000000
1.7177514280296484e+18,-0.642646789555,-0.2119752787,-0.0843630850235,1,13000000000
1.7177514282296484e+18,-0.5536727413550001,0.09122874799165,0.181828137102,1,13000000000
1.7177514284296484e+18,-0.67969916612,0.1552397115175,0.1465941801609999,1,13000000000
1.7177514286296484e+18,-0.2861309553315789,-0.1720769874452631,0.0706085010295736,1,13000000000
1.7177514288296484e+18,-0.0512689306123,-0.158680209515,0.10093547461715,1,13000000000
1.7177514290296484e+18,0.0524711746579,-0.0214253975622999,-0.0500903753046,1,13000000000
1.7177514292296484e+18,-0.00503589149445,0.02530848684415,-0.040655440205,1,13000000000
1.7177514294296484e+18,0.01589693848545,0.0055076302082,0.0177126565246499,1,13000000000
1.7177514296296484e+18,0.010151901014697,0.0196880785873,0.07458134913395,1,13000000000
1.7177514298296484e+18,0.005428760662015,0.006297397411005,0.1217051521015,1,13000000000
1.7177514300296484e+18,0.014555152378015,0.00155302337395,0.0750266171914999,1,13000000000
1.7177514302296484e+18,0.0128203906986999,0.0292264948597,-0.00784354563855,1,13000000000
1.7177514304296484e+18,-0.0351988677283,0.0051044077153,-0.0214509241049,1,13000000000
1.7177514306296484e+18,0.0047510380855499,-0.0058424108188999,-0.06062095509745,1,13000000000
1.7177514308296484e+18,-0.000737177394365,-0.01746189205435,-0.00658785835915,1,13000000000
1.7177514310296484e+18,0.0156025701427499,-0.0301265321795299,-0.0202601392970999,1,13000000000
1.7177514312296484e+18,0.0035700055306,-0.00068837934,-0.02408941253,1,13000000000
1.7177514314296484e+18,0.03427631966795,0.0113786832073,-0.1055581737404999,1,13000000000
1.7177514316296484e+18,-0.0015826731685999,-0.08639658811,-0.0617956113115,1,13000000000
1.7177514318296484e+18,-0.0125196636661999,-0.28083881984195,-0.39245584085,1,13000000000
1.7177514320296484e+18,0.0508282832166842,0.6704270812826316,-0.3953273751263157,1,13000000000
1.7177514322296484e+18,-0.464492120595,-0.3454078008844999,-0.6892151922,1,13000000000
1.7177514324296484e+18,-0.5493826374499999,0.0983602147525,-0.0995554293004,1,13000000000
1.7177514326296484e+18,-0.84230435791,0.135277599087,-0.1061844109038,1,13000000000
1.7177514328296484e+18,-0.72748509496,0.075496303944,0.2571720564665,1,13000000000
1.7177514330296484e+18,-0.332590843745,-0.1939398191919999,-0.0216419697057,1,13000000000
1.7177514332296484e+18,-0.0927511250711499,-0.17475631311,-0.1440233832460999,1,13000000000
1.7177514334296484e+18,0.16954353615975,0.0823009010855,0.1281543072335,1,13000000000
1.7177514336296484e+18,0.5075071409349998,0.1238328468055,0.0879373349883,1,13000000000
1.7177514338296484e+18,0.4210791021549999,-0.07439161216415,0.0138083355739499,1,13000000000
1.7177514340296484e+18,-0.28353968498005,0.313360029088,0.1212150601186499,1,13000000000
1.7177514342296484e+18,-0.574474987385,0.1740386488725,0.0567656876539999,1,13000000000
1.7177514344296484e+18,-0.3287129189780001,0.1347201341665,0.052240386226,1,13000000000
1.7177514346296484e+18,0.1414325403095,0.08234405676355,0.060798382423525,1,13000000000
1.7177514348296484e+18,0.5086391299999999,0.2472661435749999,0.18699278012,1,13000000000
1.7177514350296484e+18,0.5594062343249999,-0.1472167899660999,0.081674866935,2,13000000000
1.7177514352296484e+18,-0.1079074465714999,-0.3524779927505,-0.380002765365,2,13000000000
1.7177514354296484e+18,-0.6054419937842106,-0.0310661645128947,-0.0379541889847368,2,13000000000
1.7177514356296484e+18,-0.321245050435,-0.1199205313257999,-0.0986421068157499,2,13000000000
1.7177514358296484e+18,0.0086526521529999,-0.12677565204975,-0.11687304078725,2,13000000000
1.7177514360296484e+18,0.17844750596355,0.1148730720404999,0.1078240442999999,2,13000000000
1.7177514362296484e+18,0.52666760534,0.0076240219199999,0.070501138829,2,13000000000
1.7177514364296484e+18,0.40619422793,-0.1293871170929,-0.091565486511,2,13000000000
1.7177514366296484e+18,-0.394584538042,0.0406139782645,-0.0392040178674499,2,13000000000
1.7177514368296484e+18,-0.4701567277299999,-0.08824404968515,0.035024246106,2,13000000000
1.7177514370296484e+18,-0.2517735519465,0.12318189621805,0.0550394677560499,2,13000000000
1.7177514372296484e+18,0.1295081138545,-0.03623259295585,-0.01497387639305,2,13000000000
1.7177514374296484e+18,0.4471968442149999,0.04770957117825,0.0052153348462,2,13000000000
1.7177514376296484e+18,0.41374098063,-0.0839053045691999,0.00554598595655,2,13000000000
1.7177514378296484e+18,-0.1193402846329999,0.0338325629034999,-0.0067958790453499,2,13000000000
1.7177514380296484e+18,-0.4546934172499999,0.033008955891,0.0304309731162,2,13000000000
1.7177514382296484e+18,-0.3000794194649999,-0.02254505143434,0.017194917144785,2,13000000000
1.7177514384296484e+18,0.0090303447985,0.09008590952603,0.031163166462,2,13000000000
1.7177514386296484e+18,0.29939020951228,-0.0690700697253,-0.0899294600915499,2,13000000000
1.7177514388296484e+18,0.4935733330947369,0.0148462360038947,0.0631825217790526,2,13000000000
1.7177514390296484e+18,0.2207030181796999,-0.0234062352227,-0.0049866949906649,2,13000000000
1.7177514392296484e+18,-0.4800948239699998,0.08755095567511,-0.02367286365725,2,13000000000
1.7177514394296484e+18,-0.34239277915,-0.133014582393,-0.0381185670334999,2,13000000000
1.7177514396296484e+18,-0.1100504658125,0.0278228752325,-0.011714337583,2,13000000000
1.7177514398296484e+18,0.15472240941465,-0.0258317412593499,-0.0272527532647999,2,13000000000
1.7177514400296484e+18,0.4236841171899999,0.0387990371325,0.0584734031932499,2,13000000000
1.7177514402296484e+18,0.423087298135,0.0037469575595,0.0492300208819,2,13000000000
1.7177514404296484e+18,-0.2619055498904999,0.06991231829225,-0.0100265402334999,2,13000000000
1.7177514406296484e+18,-0.5358006298500001,-0.1132997550462199,-0.10268203986215,2,13000000000
1.7177514408296484e+18,-0.286984317005,-0.072891788551,-0.0401090701139999,2,13000000000
1.7177514410296484e+18,0.077308429406,0.04909926999105,0.01925075035735,2,13000000000
1.7177514412296484e+18,0.3079433240004999,0.0445200057709,0.0221942391443,2,13000000000
1.7177514414296484e+18,0.4239458680149999,0.0234420670407999,0.1037907059692,2,13000000000
1.7177514416296484e+18,0.313056347201,0.03208999747897,0.0312105291063999,2,13000000000
1.7177514418296484e+18,-0.43928512708,0.0827032064538499,-0.06356209451825,2,13000000000
1.7177514420296484e+18,-0.41076296493,-0.1528364840817,-0.033229406190965,2,13000000000
1.7177514422296484e+18,-0.1779766988452631,-0.0373784279657894,-0.1169867962568421,2,13000000000
1.7177514424296484e+18,0.0910530809808,0.0348054095572,0.07363466636395,2,13000000000
1.7177514426296484e+18,0.49611584693,0.0482371896810999,0.045424215684,2,13000000000
1.7177514428296484e+18,0.4390204653099999,0.0600070468273,0.11347271572295,2,13000000000
1.7177514430296484e+18,-0.093145944359,-0.0247731792334499,-0.07806468732335,2,13000000000
1.7177514432296484e+18,-0.5531195983200001,0.05131458866205,-0.0516480756866999,2,13000000000
1.7177514434296484e+18,-0.3333159774699999,-0.1024795646298,-0.0340100016455,2,13000000000
1.7177514436296484e+18,-0.024514486767,0.0469457390036999,0.0018540158909999,2,13000000000
1.7177514438296484e+18,0.2799226969424999,-0.0342190498489499,-0.0247443344049999,2,13000000000
1.7177514440296484e+18,0.451665204775,0.05597121618105,-0.005832462063,2,13000000000
1.7177514442296484e+18,0.3064353361699999,0.031397128105,0.106283065816,2,13000000000
1.7177514444296484e+18,-0.262619751038,0.0475845657761999,0.0052822383115,2,13000000000
1.7177514446296484e+18,-0.5252512142200001,0.0948393795116,0.0334691766645,2,13000000000
1.7177514448296484e+18,-0.2817713163849999,-0.3112627897414999,-0.1854818476375,2,13000000000
1.7177514450296484e+18,-0.027857244194,0.0584532300508,0.02664688446611,2,13000000000
1.7177514452296484e+18,0.2952063290425,0.1048889901459999,0.0919464086194999,2,13000000000
1.7177514454296484e+18,0.46883519441,0.08032900435175,0.0600065556552,2,13000000000
1.7177514456296484e+18,0.357233735165,-0.0800723162244,0.00941776027895,2,13000000000
1.7177514458296484e+18,-0.1457545201452631,0.0333103476531579,-0.0120028649004736,2,13000000000
1.7177514460296484e+18,-0.591393826905,-0.0304504828472,-0.0621152947649999,2,13000000000
1.7177514462296484e+18,-0.34200745225,-0.1828054226929999,-0.1207784966555,2,13000000000
1.7177514464296484e+18,0.01134584345605,-0.0243562817461999,-0.0070345194053499,2,13000000000
1.7177514466296484e+18,0.2192432812784999,0.0411260240790499,0.04139702665235,2,13000000000
1.7177514468296484e+18,0.486027440435,0.08463391495098,0.0465409335281499,2,13000000000
1.7177514470296484e+18,0.3260060206,0.1531400968319999,0.1447108516475,2,13000000000
1.7177514472296484e+18,-0.1433862105885,-0.0121328820468,-0.1273772861776,2,13000000000
1.7177514474296484e+18,-0.608404827115,-0.084385931772,-0.1013518264545,2,13000000000
1.7177514476296484e+18,-0.31984090433,-0.1498614040209999,0.00817105735275,2,13000000000
1.7177514478296484e+18,-0.0172275296920999,0.0994512906234999,0.0192100950549,2,13000000000
1.7177514480296484e+18,0.35773697639575,-0.1610663063455,-0.0257730812768,2,13000000000
1.7177514482296484e+18,0.475572295485,0.0944724717244999,0.0139893632459999,3,13000000000
1.7177514484296484e+18,0.27587668524,0.0556231335285,0.0630665874291999,3,13000000000
1.7177514486296484e+18,0.0244505919464999,-0.0614731398435,-0.0502636805275,3,13000000000
1.7177514488296484e+18,-0.125539796791,0.0155009863419999,0.1507912404795,3,13000000000
1.7177514490296484e+18,-0.194736435263,-0.184008797599,-0.5906972353615001,3,13000000000
1.7177514492296484e+18,-0.6152163249894738,-0.0016577305536842,0.2852868643505263,3,13000000000
1.7177514494296484e+18,-0.39484633579,-0.0991592438884999,0.0398582781645,3,13000000000
1.7177514496296484e+18,-0.0386597427026,0.2633479785145,0.1179807977532,3,13000000000
1.7177514498296484e+18,0.2575009025575,0.065024615472,-0.0600897033261029,3,13000000000
1.7177514500296484e+18,0.589280699195,0.159453573452,0.2594309329950001,3,13000000000
1.7177514502296484e+18,0.35282226057,-0.1162900565157,-0.082493117153045,3,13000000000
1.7177514504296484e+18,0.1036898636759999,-0.0487390651354999,0.0068712072683999,3,13000000000
1.7177514506296484e+18,-0.4050957895850001,0.089822467805785,-0.0659338376896,3,13000000000
1.7177514508296484e+18,-0.4512912817249999,-0.09460210223675,0.0025653178829999,3,13000000000
1.7177514510296484e+18,-0.26894688532,-0.0584534139045999,-0.0334933359235,3,13000000000
1.7177514512296484e+18,-0.02657216498435,0.02112613794625,-0.02598095338265,3,13000000000
1.7177514514296484e+18,0.1439730587160999,-0.002850980331075,-0.0423422374495575,3,13000000000
1.7177514516296484e+18,0.51987885981,0.10349789357425,0.0245159965999499,3,13000000000
1.7177514518296484e+18,0.2501320968008999,0.0423502714349999,0.1070850320790499,3,13000000000
1.7177514520296484e+18,0.28101166413,-0.090544826724,0.0536491616609,3,13000000000
1.7177514522296484e+18,0.0544519598655,0.0144020971357499,-0.070691788824675,3,13000000000
1.7177514524296484e+18,-0.4473062172499999,0.0400365271834,-0.0645903910495,3,13000000000
1.7177514526296484e+18,-0.4604867751631579,-0.1388075321932105,0.0351721232710526,3,13000000000
1.7177514528296484e+18,-0.273404692855,-0.095940766805,-0.0887432062495,3,13000000000
1.7177514530296484e+18,-0.0236101897244957,0.0502978214712499,-0.0082089426000499,3,13000000000
1.7177514532296484e+18,0.0293876467369999,0.1045593085185,0.03097884438572,3,13000000000
1.7177514534296484e+18,0.47407013923,-0.00736236883885,-0.0670035807823,3,13000000000
1.7177514536296484e+18,0.398349906505,0.2808306984525,0.2279263717115,3,13000000000
1.7177514538296484e+18,0.3857868090249999,0.073375058739,-0.0275478716753499,3,13000000000
1.7177514540296484e+18,0.33339631697818,0.1381456239169999,0.080266209044,3,13000000000
1.7177514542296484e+18,-0.0377929936615,0.3239359177649999,-0.0521987948605,3,13000000000
1.7177514544296484e+18,-0.31545825898,0.2857638842445,-0.0311390265905,3,13000000000
1.7177514546296484e+18,0.4443251194695,-0.6180857917409,-0.7002344326765001,3,13000000000
1.7177514548296484e+18,0.5402489735609999,-0.143089091741,0.197937376042,3,13000000000
1.7177514550296484e+18,0.10862625876745,-0.1240003257935,-0.1497302203604999,3,13000000000
1.7177514552296484e+18,0.0307529089076819,0.1212061550031,0.223061797732,3,13000000000
1.7177514554296484e+18,0.067327107769,0.042688004341415,0.0191631442029155,3,13000000000
1.7177514556296484e+18,0.0086753322748,-0.0245061683471499,0.0045548972565,3,13000000000
1.7177514558296484e+18,0.0201087256780999,0.0109521440930999,0.0623827187329,3,13000000000
1.7177514560296484e+18,-0.021117489932421,0.008889818616821,0.0188350302750526,3,13000000000
1.7177514562296484e+18,-0.03533900205485,-0.0544129286461999,0.059894905706,3,13000000000
1.7177514564296484e+18,0.321806754185,-0.7469919547599999,0.0847649848145,3,13000000000
1.7177514566296484e+18,0.77213260234,-0.353055617401,0.0955556111264999,3,13000000000
1.7177514568296484e+18,0.480630049105,0.3608756721,0.2287557454775,3,13000000000
1.7177514570296484e+18,-0.01531072056065,0.55923876968,0.249769983296,3,13000000000
1.7177514572296484e+18,0.280598886679,0.0208853301674999,0.1263263988848,3,13000000000
1.7177514574296484e+18,0.0905767589005499,-0.0909494361775,-0.12715866375755,3,13000000000
1.7177514576296484e+18,-0.0205343358305,-0.169995012136,-0.2147604830649999,3,13000000000
1.7177514578296484e+18,0.1061315258731,0.044298033791,-0.0980638449496,3,13000000000
1.7177514580296484e+18,0.1184862868859999,0.0095914501102949,-0.0313733600313,3,13000000000
1.7177514582296484e+18,0.199595981279,0.01789531993745,-0.3251598494284999,3,13000000000
1.7177514584296484e+18,0.5495452784289998,-0.204528593483,0.7451372288200001,3,13000000000
1.7177514586296484e+18,1.338382704485,-0.233555871402225,1.18355522744,3,13000000000
1.7177514588296484e+18,1.079018907345,-2.7194284975,0.31686287708,3,13000000000
1.7177514590296484e+18,2.818090240585,-6.59592323295,0.0204907663099999,3,13000000000
1.7177514592296484e+18,0.25135716065365,-4.700202751,-0.2914616956350001,3,13000000000
1.7177514594296484e+18,0.8752661174157893,-5.93695382063158,-0.8879100962789475,3,13000000000
1.7177514596296484e+18,0.06809234792,-3.5661869884,-1.0074538678799998,3,13000000000
1.7177514598296484e+18,1.04435083866,-1.2393075306,-0.5004153565925,3,13000000000
1.7177514600296484e+18,-0.10932856243005,-0.49014956498,-0.990950545002,3,13000000000
1.7177514602296484e+18,0.3506556026715,-0.999133881888,-1.57874789823,3,13000000000
1.7177514604296484e+18,0.34456100566525,0.2231380123709999,-0.2419336799555,3,13000000000
1.7177514606296484e+18,0.410012855194,0.7230181336400001,-0.0821462171121,3,13000000000
1.7177514608296484e+18,0.2901504753145,0.1517447029802,0.1064156408959499,3,13000000000
1.7177514610296484e+18,0.0183545386296428,-0.0336336549736428,0.00806119699,3,13000000000
1.7177514612296484e+18,,,,3,13000000000
