Timestamps,Gyro_X,Gyro_Y,Gyro_Z
1.7177471981187246e+18,0.01769439618809524,0.07416102999857144,0.009015415894961904
1.7177471983187246e+18,-0.004840479360540001,-0.08118910984875,-0.06260022181175
1.7177471985187246e+18,0.00796630611965,-0.02690048497685,-0.01077531466785
1.7177471987187246e+18,0.00112743598355,0.0200086820164,-0.0019073022641200002
1.7177471989187246e+18,0.0011484730421950002,0.032051782449349996,0.006685966416525001
1.7177471991187246e+18,-0.30287395808499995,0.04126393078,0.010635119828405003
1.7177471993187246e+18,-1.18573302329,0.257663496481,-0.0017826035613500006
1.7177471995187246e+18,-1.1019982185190476,0.14031225798184285,0.04807448529257143
1.7177471997187246e+18,-0.09896663060009998,0.151313098699,-0.047899514331325006
1.7177471999187246e+18,-0.038236289471,-0.29684389851750004,-0.077441425808
1.7177472001187246e+18,0.0008792739260000182,-0.20930175809359994,0.22948112441350008
1.7177472003187246e+18,0.54842107147,-0.1965705045462,-0.12727439813075
1.7177472005187246e+18,0.53820564597,-0.01499978410685,-0.07450174414485
1.7177472007187246e+18,0.09416935108050001,0.1829588635855,0.0342954037244
1.7177472009187246e+18,-0.7537829563714287,0.2537494244952381,0.04722798330833333
1.7177472011187246e+18,-0.5575900226849999,0.163356673354,0.03192679587575
1.7177472013187246e+18,-0.046893011765665,0.1055780534685,-0.0319982917083
1.7177472015187246e+18,0.09395637447005,-0.09103327608652,-0.037103261612444996
1.7177472017187246e+18,0.46803243384000004,0.0754345082223,0.011109164112785
1.7177472019187246e+18,0.46516048759999995,0.05653817522550001,-0.021489343325500003
1.7177472021187246e+18,0.4112784952049999,-0.084965908101035,0.10083972590144999
1.7177472023187246e+18,-0.6789314299761905,0.10081814475280952,-0.027703869800428573
1.7177472025187246e+18,-0.567495304345,0.40919202045,-0.005944609033999996
1.7177472027187246e+18,-0.11605070777925001,0.024278387987500004,0.007788700797099998
1.7177472029187246e+18,0.02128148386405,-0.11027511759100002,-0.0040568029855
1.7177472031187246e+18,0.322433106038,-0.212722144274,-0.09976955543374999
1.7177472033187246e+18,0.571959576,0.05660247207600002,-0.0026952380325000053
1.7177472035187246e+18,0.6237084075749999,-0.0261171955645,0.18396745253485
1.7177472037187246e+18,-0.1447596473665,-0.06329248392105,-0.008617757213499999
1.7177472039187246e+18,-0.862863733652381,-0.25726390026666673,-0.1676289870209524
1.7177472041187246e+18,-0.5160220503749999,-0.12005761079899999,-0.09989893594150001
1.7177472043187246e+18,-0.007690978232499998,-0.073457751046,-0.07369599022574999
1.7177472045187246e+18,0.12882254049199998,0.0224071396501,0.07742243530385
1.7177472047187246e+18,0.558732213085,0.24616251885900003,0.11571812537850001
1.7177472049187246e+18,0.363435333225,-0.24358893362250003,0.100499697129
1.7177472051187246e+18,0.5413567148099999,0.03200832265575,0.1121665182309
1.7177472053187246e+18,-0.5571181779480953,0.14047334858333335,-0.052980766765809525
1.7177472055187246e+18,-0.619193917525,-0.06789324956239999,-0.1747819601176
1.7177472057187246e+18,-0.384467978775,-0.1175619391715,-0.0297069140703
1.7177472059187246e+18,0.024191586483,-0.17254026718349996,-0.02278529699045
1.7177472061187246e+18,0.16338239679645,-0.04199411007675,0.06500837974149999
1.7177472063187246e+18,0.36986931860499994,0.0801000624913,-0.049304754604300005
1.7177472065187246e+18,0.4422534830849999,-0.124816130526,-0.004343631115500005
1.7177472067187246e+18,0.4641470105557144,0.09640999219000002,0.04126127343552381
1.7177472069187246e+18,-0.42971540262765,0.1432724777585,0.01415062202945
1.7177472071187246e+18,-0.645804838835,0.0669356208955,-0.087055399552
1.7177472073187246e+18,-0.386592757695,-0.1908034525885,-0.00760546592125
1.7177472075187246e+18,-0.030642030364999996,-0.0621372002175,-0.007840176857550002
1.7177472077187246e+18,0.17996911415595002,-0.10399164446150003,0.15227817883599998
1.7177472079187246e+18,0.6695655763199999,0.31460429057750006,0.03899138849205001
1.7177472081187246e+18,0.465307179095,-0.09509834007025,-0.12764909436385002
1.7177472083187246e+18,0.3908645006952381,0.24944627736333333,0.06406660896748047
1.7177472085187246e+18,-0.2670672137305,-0.009114445934500002,0.06642483826300001
1.7177472087187246e+18,-0.6478731393799999,0.11299947982449998,-0.0575613899419
1.7177472089187246e+18,-0.52970162481,0.279016923155,0.009300523101200001
1.7177472091187246e+18,-0.1469892659205,-0.14852148294450002,-0.0448293602321
1.7177472093187246e+18,-0.03285725647300001,-0.04775103451799998,0.108838797525965
1.7177472095187246e+18,0.277657655628,-0.12636802561385002,-0.128740640915
1.7177472097187246e+18,0.41294437782632715,-0.1996766189527143,-0.052885118781904765
1.7177472099187246e+18,0.45885095223249994,0.0474514511926,0.03977519045240001
1.7177472101187246e+18,0.0713512659045,0.07366034220749998,0.04153647883895001
1.7177472103187246e+18,-0.6156166434299999,0.030193641628914997,-0.0790158889476
1.7177472105187246e+18,-0.571200425925,0.12866420550385,0.015202593304953499
1.7177472107187246e+18,-0.18229553001549997,0.015161502638999994,-0.04153547146849999
1.7177472109187246e+18,0.20681079882689998,0.11089303963719999,0.10036214259165
1.7177472111187246e+18,0.3036789248390476,0.061991798113666674,0.13088649041714287
1.7177472113187246e+18,0.5846159875450001,0.23048498053300004,0.10196774408584999
1.7177472115187246e+18,0.4699895739550001,-0.09610992544805,0.06963766981290001
1.7177472117187246e+18,0.07932221284100001,-0.45835347175,-0.05656793793055
1.7177472119187246e+18,-0.7012145549100001,-0.009883002091450007,-0.07931861132175
1.7177472121187246e+18,-0.589326114955,-0.01118008356595,-0.08717583752730002
1.7177472123187246e+18,-0.23863647795099996,-0.055523666428999995,-0.0651467635798
1.7177472125187246e+18,0.08654229475890476,-0.10092143439571427,0.13222919409723813
1.7177472127187246e+18,0.49943431988500003,0.09498313972199998,-0.049833706787200005
1.7177472129187246e+18,0.40999723225,0.13249612770034996,0.038824109919605
1.7177472131187246e+18,0.36259117945999997,0.104922757806,0.04664532124600501
1.7177472133187246e+18,0.2919098456355,-0.19001729007301,0.028217712064850003
1.7177472135187246e+18,-0.78045133798,-0.122314755304,-0.14732135086999998
1.7177472137187246e+18,-0.5752419874,0.16643259889199996,-0.05569773322835
1.7177472139187246e+18,-0.179873725356,0.159190047711,-0.009171145641650003
1.7177472141187246e+18,0.05229675981023808,-0.07450430240004763,0.010498560876285715
1.7177472143187246e+18,0.30431589484,-0.020868609826299993,0.09294450627254999
1.7177472145187246e+18,0.33094468118000003,-0.0284228493485,-0.04434796184395
1.7177472147187246e+18,0.37197942324200006,-0.09568527571691,-0.030996688597949996
1.7177472149187246e+18,0.4627658553450001,0.008248590204000008,0.11869829669049999
1.7177472151187246e+18,-0.1833176001875,0.006468992899669998,0.019520319531650003
1.7177472153187246e+18,-0.8186501294699999,0.11405586274100002,-0.07010279803525
1.7177472155187246e+18,-0.6150064936857145,0.2588388470278095,0.02281282415809524
1.7177472157187246e+18,-0.012149771024550001,-0.09378665876445,-0.05140721468785001
1.7177472159187246e+18,-0.04304503411509999,-0.29380962413550005,-0.034761284999999996
1.7177472161187246e+18,0.51528233737,0.059641418217450004,-0.05833128786776999
1.7177472163187246e+18,0.4460661714020001,0.05963923577588498,0.0358149192776
1.7177472165187246e+18,0.28517050929300003,0.11610663728950002,0.042094582086
1.7177472167187246e+18,0.0841887392556,0.14435997400490003,0.038980392738399997
1.7177472169187246e+18,0.3884182605261904,0.09615567402285714,-0.2349799597175714
1.7177472171187246e+18,-0.48959095776000006,-0.1396230810094,-0.05384761378870001
1.7177472173187246e+18,-0.619033387295,0.13239910137049998,0.0170194672425
1.7177472175187246e+18,-0.36443965174,-0.17240669615065,-0.0253139091669
1.7177472177187246e+18,0.0075998819481500005,-0.01460594291,0.009608613559100001
1.7177472179187246e+18,0.42534517421999996,-0.187898944504,0.011280876911000002
1.7177472181187246e+18,0.43335504573865,0.10954984599244999,-0.0262241393315
1.7177472183187246e+18,0.3679506504895,-0.14757450316500004,-0.095583840555
1.7177472185187246e+18,0.3574504747652381,0.022620887443809516,0.11762239697252383
1.7177472187187246e+18,-0.6013115726410001,0.009652250623849999,0.035377615505500004
1.7177472189187246e+18,-0.7062572807049999,0.11918336633014999,-0.07888492280765
1.7177472191187246e+18,-0.397773262105,-0.1107902766105,0.023883572661350005
1.7177472193187246e+18,-0.0252161844393,-0.0015158900085000004,0.05319149494315001
1.7177472195187246e+18,0.18088471996204997,-0.034309738501549995,0.028005537321
1.7177472197187246e+18,0.49483104868499994,0.0872621595349,-0.0030579941124999994
1.7177472199187246e+18,0.4040646819109524,-0.007091202088047614,-0.029248453675238102
1.7177472201187246e+18,0.59158672912,-0.1078742228082,-0.048471597721300004
1.7177472203187246e+18,0.16515094824100007,-0.08239086607565,0.024056987381849994
1.7177472205187246e+18,-0.7612510428050001,0.13955700378410002,0.072776222934
1.7177472207187246e+18,-0.5747346088249999,0.15709666008400003,0.0339658640327
1.7177472209187246e+18,-0.13369598994014997,-0.061740777338889996,-0.017391183484100008
1.7177472211187246e+18,-0.25702872360199996,0.0401779832292,0.08833895436455001
1.7177472213187246e+18,0.35368422098095237,0.10451467515333332,0.21387776013285714
1.7177472215187246e+18,0.3728161964635,-0.005793096797600004,0.054287417730200016
1.7177472217187246e+18,0.46926385313,-0.15872423743970002,-0.06047020268560001
1.7177472219187246e+18,0.460051472485,0.013891847448099997,0.0026920168537499997
1.7177472221187246e+18,-0.04585217003400001,-0.13546471428399998,-0.09775730124845
1.7177472223187246e+18,-0.53588447869,-0.004562990508000001,-0.0491165049829
1.7177472225187246e+18,-0.58304955066,0.17094779333745005,-0.00622055755395
1.7177472227187246e+18,-0.192674860077,-0.19322670847499998,-0.0706288989604
1.7177472229187246e+18,-0.23426702262857144,0.0324409379472381,-0.011309986590866664
1.7177472231187246e+18,0.1184560970802035,0.07420067726915,-0.011271709156864998
1.7177472233187246e+18,0.3570416781065,-0.020135829586184997,0.0107689813695
1.7177472235187246e+18,0.29172202330299996,-0.14635695563349999,0.002818689029499998
1.7177472237187246e+18,0.2789022184855,-0.09756383812225,0.0243871763103
1.7177472239187246e+18,0.39127620886549996,-0.08077377695150004,0.1459231071255
1.7177472241187246e+18,-0.32775098331900004,0.22647650483249998,-0.003400503386500002
1.7177472243187246e+18,-0.3512147210904762,-0.012910191944761909,-0.10875647976219047
1.7177472245187246e+18,-0.39923528135,-0.1291060295514,-0.11850905381400001
1.7177472247187246e+18,-0.32555799810770003,-0.273476601855,-0.07507776526314999
1.7177472249187246e+18,0.311382247515,-0.029289375853965006,-0.1431953485975
1.7177472251187246e+18,0.2113902274555,0.168924785395,0.11824769415084999
1.7177472253187246e+18,0.13107152618249998,0.21697959825000002,0.08978541549100001
1.7177472255187246e+18,0.0350314487255,0.10781439244770001,0.030039477207675004
1.7177472257187246e+18,0.06604501108380952,-0.06588633518095237,-0.027981101535366665
1.7177472259187246e+18,0.067356173321,-0.008778543629850002,-0.006402573315480499
1.7177472261187246e+18,0.0461237671325,0.014037732534104999,0.00754740230108
1.7177472263187246e+18,0.031665297598,0.009343222005095003,-0.004667642212299999
1.7177472265187246e+18,0.02278705090225,-0.013365040929074997,0.007167381921705
1.7177472267187246e+18,-0.0330865848321,0.0027990114054550004,-7.241099367999993e-05
1.7177472269187246e+18,-0.012626412454428566,0.0014467439939285717,0.01157654988157143
1.7177472271187246e+18,,,
