Timestamps,Gyro_X,Gyro_Y,Gyro_Z,Label
1.7177476384258212e+18,-0.0036586786682523,-0.0150347122740714,-0.0194839241778095,1.0
1.7177476386258212e+18,-0.01693206625548,0.029540361463,0.0450108588673,1.0
1.7177476388258212e+18,0.02407108116835,0.0102777833481,-0.01240256691795,1.0
1.7177476390258212e+18,0.034696260514,-0.0527369194540499,0.024139646952915,1.0
1.7177476392258212e+18,0.199596415696,-0.1175070391694,0.023045235883785,1.0
1.7177476394258212e+18,0.336165395375,0.0021713172598999,-0.02109507459155,1.0
1.7177476396258212e+18,0.310233478985,0.0718592230675,0.03233428640575,1.0
1.7177476398258212e+18,0.2573591544380952,0.19880651399,-0.0789042759232857,1.0
1.7177476400258212e+18,0.1895505771,0.0647201020279999,-0.096120453719,1.0
1.7177476402258212e+18,-0.1626176461571,-0.3757574223,-0.0087253607578695,1.0
1.7177476404258212e+18,-0.6109542801950001,-0.064353011081,-0.04893718978845,1.0
1.7177476406258212e+18,-0.17284079048255,0.03974014478695,0.0174734659369,1.0
1.7177476408258212e+18,0.1437750128175,0.0229452001404499,-0.0139098882216,1.0
1.7177476410258212e+18,0.48398163169,0.0288778046957999,-0.041171665769,1.0
1.7177476412258212e+18,0.6492734295904762,-0.0202532114170952,-0.0695257011271428,1.0
1.7177476414258212e+18,0.2766029890153499,0.0071933660292,0.0251381335308099,1.0
1.7177476416258212e+18,-0.2748573405883,-0.078344932671,-0.0145565986751999,1.0
1.7177476418258212e+18,-0.78885662854,-0.1175173331932499,0.0371776317826,1.0
1.7177476420258212e+18,-0.6238910034199999,0.0760191096925,0.0487820139155,1.0
1.7177476422258212e+18,-0.2685778766845,-0.015761434103,0.0857591494978999,1.0
1.7177476424258212e+18,0.17295074817,-0.08364043223755,-0.085753886403,1.0
1.7177476426258212e+18,0.3653720858523809,-0.0303029843723809,-0.1458243922904761,1.0
1.7177476428258212e+18,0.5764277949900001,0.0998886646745,-0.0555055898398999,1.0
1.7177476430258212e+18,0.6518937304600001,0.1486129299819999,-0.0234159732003,1.0
1.7177476432258212e+18,0.0951777645964549,-0.0684558558206499,0.0189255842472,1.0
1.7177476434258212e+18,-0.467874288555,-0.157060493484,0.05822124239375,1.0
1.7177476436258212e+18,-0.743703544135,-0.0324288582366,0.1233340326765,1.0
1.7177476438258212e+18,-0.4348270043949999,-0.07095503514535,0.1165041610634999,1.0
1.7177476440258212e+18,-0.14820884762015,0.302864671865,0.11142160371,1.0
1.7177476442258212e+18,0.3735111284809524,0.0614154682500618,-0.0806819727556666,1.0
1.7177476444258212e+18,0.4629467949199999,0.03317285671705,-0.0725582672259999,1.0
1.7177476446258212e+18,0.610828933115,0.21825357899,-0.0066543600175499,1.0
1.7177476448258212e+18,0.4747611649299998,0.045013159921,0.006397498619095,1.0
1.7177476450258212e+18,-0.0743234362484999,-0.06479483393405,0.0147588165018999,1.0
1.7177476452258212e+18,-0.6933570891449999,-0.3042189592525,-0.0001341907313,1.0
1.7177476454258212e+18,-0.7124854385799999,-0.0720968563914999,0.077711009051,1.0
1.7177476456258212e+18,-0.3298597726095238,-0.1451157102184285,0.0415274567257571,1.0
1.7177476458258212e+18,0.095280329372005,-0.02630747784505,-0.0348509044509999,1.0
1.7177476460258212e+18,0.35996557474,0.1113158892855,-0.03248363087283,1.0
1.7177476462258212e+18,0.4872607976249999,-0.0099341623045,-0.0092734572011,1.0
1.7177476464258212e+18,0.5363021641900001,0.03282072205958,-0.0448828719549999,1.0
1.7177476466258212e+18,0.2923794892605,0.1020568112906,-0.0410267338865949,1.0
1.7177476468258212e+18,-0.153690902885,-0.0861114417635,0.00778583535125,1.0
1.7177476470258212e+18,-0.6220510005952381,-0.1541889671652381,0.0121528175664761,1.0
1.7177476472258212e+18,-0.7647803157599999,-0.1278419817318,0.047506618183895,1.0
1.7177476474258212e+18,-0.5386873290049999,-0.1854245547139999,0.0538446336985,1.0
1.7177476476258212e+18,-0.0212063094654999,0.1978252033645,-0.01519262885961,1.0
1.7177476478258212e+18,0.48294043242,-0.0168983344945,-0.1356406368344999,1.0
1.7177476480258212e+18,0.5560107871850001,-0.0488601391245,-0.02041586235875,1.0
1.7177476482258212e+18,0.5397752657549999,-0.1239764549785,-0.0503859645802649,1.0
1.7177476484258212e+18,0.4691469982199999,-0.0391178231486,-0.0914036400555,1.0
1.7177476486258212e+18,0.0535569152071428,0.2351352661142856,-0.0102085848670952,1.0
1.7177476488258212e+18,-0.2438741072222,0.0247623082725,0.03391910647105,1.0
1.7177476490258212e+18,-0.471160132435,-0.1704338050433999,0.0652901190791499,1.0
1.7177476492258212e+18,-0.541058291515,-0.0634419684824,0.1075480097974999,1.0
1.7177476494258212e+18,-0.8458271920649999,0.3509680245049999,0.17152885197765,1.0
1.7177476496258212e+18,-0.266673495812,0.2119976945294999,-0.019481397920735,1.0
1.7177476498258212e+18,-0.0074418538431999,0.0211023881333,-0.04242322356467,1.0
1.7177476500258212e+18,0.0162229739857619,0.0660814853995238,0.020107412190238,1.0
1.7177476502258212e+18,-0.0305154186211,0.0723075602704,0.0304784785955,1.0
1.7177476504258212e+18,-0.0120629914691999,0.015020883212265,0.0014808782380549,1.0
1.7177476506258212e+18,-0.0006560127334099,-0.00980041670835,0.01196372016529,1.0
1.7177476508258212e+18,-0.0051479704304,-0.008251518267025,0.0136541565169999,1.0
1.7177476510258212e+18,-0.0010117175234,-0.0075516334034499,0.0001303651139,1.0
1.7177476512258212e+18,0.005058529593535,0.01532652602708,0.0003831844542,1.0
1.7177476514258212e+18,0.0065112600207619,-0.0067577898689014,-0.0147915594332857,1.0
1.7177476516258212e+18,-0.011206512437765,0.0338175418318999,0.0160713106394,1.0
1.7177476518258212e+18,-0.0201645837686,0.02254123266393,-0.0181168805815,1.0
1.7177476520258212e+18,0.001040809031775,0.0314586095518999,0.014197720609825,1.0
1.7177476522258212e+18,-0.0004048755470499,-0.0145003267535,-0.0024459099397249,1.0
1.7177476524258212e+18,-0.0114013146262,-0.020971310325649,-0.0048574344253,1.0
1.7177476526258212e+18,-0.0059715758509899,-0.0158796579933019,0.007848579902745,1.0
1.7177476528258212e+18,0.0066453056178,0.01651749208087,-0.01868095942788,1.0
1.7177476530258212e+18,0.0029541440365238,0.0101434045159952,0.0014677724158319,1.0
1.7177476532258212e+18,0.0141378060566599,0.00814563259558,-0.0084156741148499,1.0
1.7177476534258212e+18,0.0095023132634999,0.0097095420937849,-0.001102176203876,1.0
1.7177476536258212e+18,0.003884739743045,-0.0012174458122,0.004824208305255,1.0
1.7177476538258212e+18,9.411611527000004e-05,-0.00017355383652,0.003919971932195,1.0
1.7177476540258212e+18,-0.0036966953717249,-0.0052376732689349,-0.0031907482306049,1.0
1.7177476542258212e+18,-0.01608747527875,-0.0093931642016919,-0.000587161316085,1.0
1.7177476544258212e+18,-0.0094913058655238,-0.0012371260010952,-0.0061262117898238,1.0
1.7177476584258212e+18,1.027896714245,-0.2402103714655,0.0066770600116499,2.0
1.7177476586258212e+18,0.776881071925,0.1714182983179999,-0.06210396048,2.0
1.7177476588258212e+18,0.3068230400519048,-0.1321421584023809,0.0164894659395238,2.0
1.7177476590258212e+18,0.46464100182,0.08550231522115,0.01999520732847,2.0
1.7177476592258212e+18,0.011603601836,0.2176203567525,0.03472038605175,2.0
1.7177476594258212e+18,-0.060018248255,0.08523622882745,0.0390941559337,2.0
1.7177476596258212e+18,-0.41196493358,0.2232624471049999,0.0703121789775,2.0
1.7177476598258212e+18,-0.52202340364,-0.278745277235,-0.0783274152416999,2.0
1.7177476600258212e+18,-0.4055160030799999,-0.2077625697951499,-0.011933078014,2.0
1.7177476602258212e+18,0.0568869062474761,0.0274243953955809,-0.0176514830173333,2.0
1.7177476604258212e+18,0.2341556117865,0.0755838583434999,0.01331295328915,2.0
1.7177476606258212e+18,0.2775314528389249,-0.0250176826955499,-0.0344883981883,2.0
1.7177476608258212e+18,0.1515201097895,-0.0419711059399499,-0.0213211613011,2.0
1.7177476610258212e+18,-0.0122403991428499,0.1246953965564499,0.03343400401115,2.0
1.7177476612258212e+18,-0.0762287368085,0.0298664281579999,-0.0089352173023,2.0
1.7177476614258212e+18,-0.5325882270999999,0.179942179368,0.00999128873235,2.0
1.7177476616258212e+18,-0.3878223285904762,-0.3099991697019047,-0.0641516251366714,2.0
1.7177476618258212e+18,-0.195962472544,0.04291288865075,0.07148723329415,2.0
1.7177476620258212e+18,0.2141785018224999,-0.04299851633125,-0.01447210667037,2.0
1.7177476622258212e+18,0.357148207715,0.0856917941033,-0.1293398784459999,2.0
1.7177476624258212e+18,0.4624372959049999,-0.1536430673695,-0.02088591115295,2.0
1.7177476626258212e+18,0.60997532458,0.0754630337509999,0.00529458927765,2.0
1.7177476628258212e+18,-0.0123757518874999,-0.0392565297434499,-0.05044549468865,2.0
1.7177476630258212e+18,-0.280836226035,0.0365515127797499,0.0299403550564999,2.0
1.7177476632258212e+18,-0.5012782641761904,0.0954777576214285,0.0562466877499999,2.0
1.7177476634258212e+18,-0.399685485665,-0.15109390204805,0.0014895713197999,2.0
1.7177476636258212e+18,-0.1788112003809499,-0.1112972686064999,-0.00945895677423,2.0
1.7177476638258212e+18,0.3305140156265,-0.01322563221655,-0.0185808950915,2.0
1.7177476640258212e+18,0.49494740963,-0.063229100265,-0.03418208269795,2.0
1.7177476642258212e+18,0.5095734521749999,0.049232553654775,-0.041764072608,2.0
1.7177476644258212e+18,0.326271935926,-0.01565178728105,-0.0022441974607,2.0
1.7177476646258212e+18,-0.0947232771895238,0.0598685836153809,0.0286661383266578,2.0
1.7177476648258212e+18,-0.54187377765,-0.0149194845320999,0.0166641533286,2.0
1.7177476650258212e+18,-0.598627412325,0.0654948395926499,0.0361775871368,2.0
1.7177476652258212e+18,-0.31225132123,-0.292382436985,-0.03209643558455,2.0
1.7177476654258212e+18,-0.1291255537455,0.0136988821835,0.0383729552855,2.0
1.7177476656258212e+18,0.32328145578,-0.04871222692975,-0.02969608949605,2.0
1.7177476658258212e+18,0.41776529997,-0.0298330924923999,-0.0545030326605,2.0
1.7177476660258212e+18,0.4735017617476191,-0.0074642430990476,-0.0590993997959999,2.0
1.7177476662258212e+18,0.354735669485,0.070024850218,-0.08286950774,2.0
1.7177476664258212e+18,-0.0337245578919,0.03650085527339,-0.014350099733055,2.0
1.7177476666258212e+18,-0.3073735166294999,0.07454743956255,0.0423057652694,2.0
1.7177476668258212e+18,-0.64660814404,0.0753771771178,0.04872007829685,2.0
1.7177476670258212e+18,-0.5036246687149999,-0.13134045377545,0.112529036775,2.0
1.7177476672258212e+18,-0.75838748514,0.0349843386625,0.10303240743325,2.0
1.7177476674258212e+18,-0.3343281768149999,0.1847714826555,0.1163546757789999,2.0
1.7177476676258212e+18,-0.0991188543280952,0.1116742296499999,-0.0167438078086428,2.0
1.7177476678258212e+18,-0.019654569337145,0.03287704779885,0.0088449619937964,2.0
1.7177476680258212e+18,-0.06840431504,-0.02944700757445,-0.0067720407514499,2.0
1.7177476682258212e+18,-0.07513602554405,0.0134234233295,0.0044645467309,2.0
1.7177476684258212e+18,-0.017757222723105,-0.0161319652914499,-0.010941496945185,2.0
1.7177476686258212e+18,-0.00994842561695,-0.00807453054012,0.00028567058015,2.0
1.7177476688258212e+18,-0.00522244700407,-0.0168465796406999,0.0037069653509967,2.0
1.7177476690258212e+18,-0.0149732568696666,-0.0206135450196666,0.0049699013441904,2.0
1.7177476692258212e+18,0.0067132608671,0.00967334590415,0.00775621632378,2.0
1.7177476694258212e+18,0.0122447175916,0.002914227999285,-0.00216043476833,2.0
1.7177476696258212e+18,0.010216934839645,0.012769972439585,0.00451797867423,2.0
1.7177476698258212e+18,0.0176555093845,0.013570857338515,0.0065755394752499,2.0
1.7177476700258212e+18,0.01310165911005,0.0142952801777999,0.0011860170634649,2.0
1.7177476702258212e+18,0.0033312911575,0.01137121414015,0.00111901409696,2.0
1.7177476704258212e+18,-0.0080524880080476,-0.0034095172634714,-0.0017419452111966,2.0
1.7177476706258212e+18,-0.01079829032585,-0.0087630120107499,-0.0037052289000899,2.0
1.7177476708258212e+18,-0.02071015550175,-0.004047163331887,-0.0097329115028749,2.0
1.7177476710258212e+18,-0.008258411133789,-0.018538495246295,-0.0009344467777799,2.0
1.7177476712258212e+18,-0.00239879753489,-0.0166523073808,-0.00445838373858,2.0
1.7177476714258212e+18,-0.00514184508628,-0.006111281748595,0.00315925033035,2.0
1.7177476716258212e+18,-0.0004719303103394,0.004584501456855,0.00195085831211,2.0
1.7177476718258212e+18,0.0035919769713809,3.5660585385714255e-05,0.0034064712290238,2.0
1.7177476720258212e+18,-0.00114489555715,-0.009401897143155,0.00186659446912,2.0
1.7177476722258212e+18,0.00610739378611,-0.0161690196019,0.0024992680875699,2.0
1.7177476768258212e+18,1.05922555621,-0.1036765781211,-0.0455621277887,3.0
1.7177476770258212e+18,0.8618170991249998,0.321666851635,-0.1311447545093,3.0
1.7177476772258212e+18,0.5446510612950001,-0.069454938553,-0.02713828313935,3.0
1.7177476774258212e+18,0.3085083901839999,-0.19098264462,0.0463049915505,3.0
1.7177476776258212e+18,-0.117625750602,0.0569190145336,0.019613485248,3.0
1.7177476778258212e+18,-0.0633592751,0.0502359708507333,0.0030849485746166,3.0
1.7177476780258212e+18,-0.5802049413400001,-0.084119644387,0.0741345402038,3.0
1.7177476782258212e+18,-0.4402539804549999,-0.1917975654679499,0.0120938017977,3.0
1.7177476784258212e+18,-0.1845802980679,0.0833807112815349,0.01357025895365,3.0
1.7177476786258212e+18,0.1773839851928,0.0901493484139999,-0.0181665749757,3.0
1.7177476788258212e+18,0.367820790415,-0.003679910025,-0.0154651618448,3.0
1.7177476790258212e+18,0.4999371200649999,0.151708731417,-0.007288110499965,3.0
1.7177476792258212e+18,0.3104951821666666,0.0850538873840952,0.0113413933708238,3.0
1.7177476794258212e+18,0.0074035622599999,-0.1549377139684999,-0.0216844469309,3.0
1.7177476796258212e+18,-0.3822501532675,0.06689614832745,-0.010714044095608,3.0
1.7177476798258212e+18,-0.641271677615,-0.07434530317795,0.0034833839630499,3.0
1.7177476800258212e+18,-0.6280614525050001,-0.2214971434409999,0.0439632129385,3.0
1.7177476802258212e+18,-0.18286230871495,0.1660435260315,0.0528648577631,3.0
1.7177476804258212e+18,0.273442169275,0.0434003427508899,0.0309899416397649,3.0
1.7177476806258212e+18,0.586714957447619,-0.2037578877009523,-0.0571978905991428,3.0
1.7177476808258212e+18,0.5995662271800001,0.0198759952639,0.018852542864345,3.0
1.7177476810258212e+18,0.2941196433375,0.08933934458405,-0.00383743545915,3.0
1.7177476812258212e+18,-0.119821969613,0.1050317282323,0.0191270656188,3.0
1.7177476814258212e+18,-0.4554528832400001,-0.0284424178735,-0.0386937696019,3.0
1.7177476816258212e+18,-0.4346516296300001,0.0306649208039499,-0.00107631818481,3.0
1.7177476818258212e+18,-0.2086567256593,-0.1278767788805,0.01735535233709,3.0
1.7177476820258212e+18,0.209603227771,0.1149798535848,0.003448781534215,3.0
1.7177476822258212e+18,0.3750242690333333,0.3001371822595238,-0.0303011265954761,3.0
1.7177476824258212e+18,0.468039909005,-0.04111695054265,-0.0582667349834999,3.0
1.7177476826258212e+18,0.1839779654535,-0.08084938491295,-0.02920726572685,3.0
1.7177476828258212e+18,-0.0948064221658999,0.0200791251844,-0.00300533820375,3.0
1.7177476830258212e+18,-0.53543669284,-0.03916540247695,0.08919146371315,3.0
1.7177476832258212e+18,-0.448920211195,-0.06604317209925,-0.0057585319999999,3.0
1.7177476834258212e+18,-0.325827776635,-0.04082037110135,0.0033816381008009,3.0
1.7177476836258212e+18,0.0004246581469999,0.0077523460964285,-0.0046025534011428,3.0
1.7177476838258212e+18,0.44075312762,0.0965860890265,-0.05276104083605,3.0
1.7177476840258212e+18,0.54487966,0.01456146265865,-0.0029916557482,3.0
1.7177476842258212e+18,0.59522183239,-0.03900244277285,0.00629138097815,3.0
1.7177476844258212e+18,-0.0107722227774999,-0.0773839024914999,0.0310667151926499,3.0
1.7177476846258212e+18,-0.1271174149099999,0.0384156637030499,0.00932999397395,3.0
1.7177476848258212e+18,-0.61364685893,0.1021918729869999,-0.052907196566,3.0
1.7177476850258212e+18,-0.4741927541428571,-0.09566058662,-0.0379534681946666,3.0
1.7177476852258212e+18,-0.681243275125,-0.216225033625,0.0285598941634,3.0
1.7177476854258212e+18,-1.1177553027799998,0.2244434826560499,0.0331172630235499,3.0
1.7177476856258212e+18,-0.18846664159615,0.0292710955209999,0.01776427088,3.0
1.7177476858258212e+18,-0.05851202360505,-0.1664887588499999,-0.02423292470585,3.0
1.7177476860258212e+18,0.0242974279452,-0.01949590715829,-0.009611744118468,3.0
1.7177476862258212e+18,0.030639255733715,-0.0111900617605999,-0.02301523966125,3.0
1.7177476864258212e+18,0.0286195514306923,-0.0239582528156153,-0.0082394160832846,3.0
1.7177476866258212e+18,,,,3.0
