Timestamps,Acc_X,Acc_Y,Acc_Z
1.7176771858776412e+18,-2.243076466869593,3.2235216137906977,10.218855159058139
1.7176771860776412e+18,1.1771574457244187,0.25414002506500005,8.662741383767443
1.7176771862776412e+18,2.5190301260581394,-0.6511259929125348,7.823305789813952
1.7176771864776412e+18,5.496060231164706,1.15959000322,11.874312019388235
1.7176771866776412e+18,5.774270562267442,2.94311621022093,12.70260504798837
1.7176771868776412e+18,3.7213956761465123,3.356017236081396,7.304007635581394
1.7176771870776412e+18,2.2273840033502905,7.496101257395348,3.0354346481355816
1.7176771872776412e+18,1.075250044356353,8.705764371988234,2.472376987948236
1.7176771874776412e+18,1.1213434666805815,10.811273497151161,1.6417545680092671
1.7176771876776412e+18,1.0329203261672906,9.635729867418606,0.9257997762847673
1.7176771878776412e+18,0.07968655989868605,10.02297757431395,0.699984087330465
1.7176771880776412e+18,1.0461420533935293,9.67167654062353,1.1993390144586469
1.7176771882776412e+18,0.37995798898866273,10.01724592766279,0.12470501438779068
1.7176771884776412e+18,0.5859076622880233,9.809125988941862,0.3623178679882558
1.7176771886776412e+18,0.6673441623930587,9.936407167858825,-0.1445827872363647
1.7176771888776412e+18,0.9074362545966861,10.102775451860465,0.0007234106193604588
1.7176771890776412e+18,0.6929169218691861,10.083132056279071,0.03055022360369768
1.7176771892776412e+18,-0.0713395033377907,9.558380503872096,0.7806166515977909
1.7176771894776412e+18,-0.06029912817358824,9.87796594977647,2.2743075447788237
1.7176771896776412e+18,1.2832763555023254,9.511581304558138,3.192192363197674
1.7176771898776412e+18,1.175766273314302,8.573650465418606,3.941257121953487
1.7176771900776412e+18,1.314883866326744,7.144244998069769,4.869561029069768
1.7176771902776412e+18,1.5457634238600002,6.437593735000001,6.585385743305884
1.7176771904776412e+18,1.6881085523372092,5.040675692813954,8.840978805406976
1.7176771906776412e+18,1.143991811339535,2.874892930639535,8.97937306693023
1.7176771908776412e+18,0.26343569880305884,4.432070527305883,10.333052724929413
1.7176771910776412e+18,0.8539594456945351,5.464817374255815,8.477381057523257
1.7176771912776412e+18,-2.80973025738686,4.867557731008256,8.33141895789535
1.7176771914776412e+18,0.15525523044197673,2.0706819415048834,8.160304235790697
1.7176771916776412e+18,0.17740669495541175,3.841127810729412,9.520450104035294
1.7176771918776412e+18,-1.9953358437058144,4.044371089232558,7.885630529988372
1.7176771920776412e+18,-2.3530906549534887,4.251489373104652,9.283984916139534
1.7176771922776412e+18,-1.8223292110127907,4.449648474476745,9.502010035058138
1.7176771924776412e+18,-2.114748500430588,4.323633452035294,8.57621420692941
1.7176771926776412e+18,-2.536670250883721,3.5169484698488365,9.72548847988372
1.7176771928776412e+18,-3.9984066485697665,1.4280142924709303,8.639592242732556
1.7176771930776412e+18,-4.039641091976745,-0.12782124538372094,9.858651848767444
1.7176771932776412e+18,-2.962595946635294,-0.31489545825941173,9.737774747752942
1.7176771934776412e+18,0.24623814627601168,-0.9150598950255812,9.90010891430233
1.7176771936776412e+18,0.03900856894290699,-1.2833319937697674,9.867889260290696
1.7176771938776412e+18,-0.4752427279288235,-1.0422572444694116,9.807926638141177
1.7176771940776412e+18,-0.5993742504465117,-0.6629231655209301,9.862881061639534
1.7176771942776412e+18,-0.3712213941684884,-0.773660767911628,9.842291665465115
1.7176771944776412e+18,-0.23722332419689537,-0.847726980618605,9.831384858348837
1.7176771946776412e+18,0.3217079662121176,-1.2881267954258822,9.742222539294117
1.7176771948776412e+18,-0.6079438902894185,-0.6195741243744186,9.971782307197675
1.7176771950776412e+18,0.14156606367015118,-0.8069933472837211,9.84885800138372
1.7176771952776412e+18,0.4489046567460465,-1.2686968245151167,9.821423985011627
1.7176771954776412e+18,-0.21529773516194115,-0.9636600550600001,9.854206601200001
1.7176771956776412e+18,-0.3895292685813953,-0.5272000383465115,9.8705603687093
1.7176771958776412e+18,-0.28307648436162786,-0.7838998277534883,9.839453608546512
1.7176771960776412e+18,0.10517159249188235,-1.2692094318682354,9.806575359976469
1.7176771962776412e+18,-0.04490715767875581,-0.8537925065965116,9.857817150627907
1.7176771964776412e+18,-0.5058315755313605,-0.7769439480034882,9.862825427046513
1.7176771966776412e+18,-0.6781148078825582,-0.9424938909360465,9.916914318825581
1.7176771968776412e+18,-1.0161895470407412,-0.8538154195517645,9.798918354023531
1.7176771970776412e+18,-1.306759385865116,-0.8437760389174418,9.776628139372095
1.7176771972776412e+18,-0.7140071499441859,-0.8394912197186045,9.834779295744188
1.7176771974776412e+18,-1.0894020637034882,-0.7061609147523257,9.817639994081395
1.7176771976776412e+18,-0.8078169233670591,-0.7020260116552941,9.824760852129412
1.7176771978776412e+18,-0.9520651718918604,-0.6740525718290699,9.821646601593024
1.7176771980776412e+18,-0.9665334051255812,-0.6802293956244185,9.858874454034883
1.7176771982776412e+18,-0.7946397052232559,-0.6412208191139536,9.819086817639533
1.7176771984776412e+18,-0.8540406247882353,-0.4581270070564708,9.82492979829412
1.7176771986776412e+18,-0.8977536746000001,-0.38624609226511636,9.861378581069767
1.7176771988776412e+18,-0.44317301155348826,-0.40338538050232553,9.857205080476742
1.7176771990776412e+18,-0.6744944782435294,-0.2817337512458588,9.877797070705883
1.7176771992776412e+18,-0.4738345286476744,-0.4968167539895349,9.893987700069768
1.7176771994776412e+18,-0.8114451107616278,-0.44506501042209307,9.853365354697676
1.7176771996776412e+18,-0.5796751960360464,-0.44601101203255805,9.878517893883721
1.7176771998776412e+18,-0.693186643722353,-0.3190054847870588,9.843790828458824
1.7176772000776412e+18,-0.5095599286767443,-0.5171835730988372,9.874288714220931
1.7176772002776412e+18,-0.5571937966453488,-0.3223076436767442,9.864884276674418
1.7176772004776412e+18,-0.796809938055814,-0.4524104189744187,9.870003844441861
1.7176772006776412e+18,-0.7465043628752942,-0.4522153282014119,9.864003114141177
1.7176772008776412e+18,-0.7722139493755813,-0.7116143241046511,10.628695543197676
1.7176772010776412e+18,-0.6962557445826745,-0.4289830130754651,11.900953780953488
1.7176772012776412e+18,1.2454501056041178,2.494109416007059,10.520312235564706
1.7176772014776412e+18,0.33621940546118606,2.236788350465117,6.944750386697674
1.7176772016776412e+18,0.2638782542338372,2.757143799651163,4.075978609000001
1.7176772018776412e+18,-1.3294633863127094,2.408069940500001,10.635206278209303
1.7176772020776412e+18,-1.4024192759834118,0.6646979789045646,14.16320176976471
1.7176772022776412e+18,-1.3735914923302326,0.9379864764976746,11.925883681081396
1.7176772024776412e+18,-0.6531292859262792,2.3628845339186038,8.398250989872095
1.7176772026776412e+18,0.20811992346,3.4567940068953487,3.5182839756860464
1.7176772028776412e+18,-0.11812098497499997,2.2793746934470587,9.504404135458824
1.7176772030776412e+18,-0.7219090238200347,0.6421111702989536,13.471758388023252
1.7176772032776412e+18,-0.3811822104227907,0.46064617760802323,12.724251714069766
1.7176772034776412e+18,-0.2768355032271999,2.135073410729412,9.818173543176469
1.7176772036776412e+18,0.5025484026511629,3.6724819166162788,3.6327499428255816
1.7176772038776412e+18,0.18942251782069772,3.1488989536046517,7.858586045220931
1.7176772040776412e+18,-0.3043336543517442,0.7894645309675232,12.153368839267445
1.7176772042776412e+18,-0.9487964034776116,0.1927207506315294,13.590669643058826
1.7176772044776412e+18,-1.2824416521279072,1.808417441494187,10.626135815046512
1.7176772046776412e+18,-0.2710010787163953,3.355683340511628,5.104781042709302
1.7176772048776412e+18,-0.4337686652276744,3.0967576836162785,6.26619042076744
1.7176772050776412e+18,-0.5928569947498824,1.4650830794494116,10.909694772823528
1.7176772052776412e+18,-1.0156140953213955,-0.4968724022684301,13.872639711627908
1.7176772054776412e+18,-1.0346453874084536,0.5966475441602326,11.431904937139535
1.7176772056776412e+18,-0.28240871833159303,2.191602964006977,8.800690373697675
1.7176772058776412e+18,0.06480326636988235,3.729931935129412,3.780941278799999
1.7176772060776412e+18,-0.6421111725609302,1.9438623397674422,9.061007222139533
1.7176772062776412e+18,-1.466466404144186,0.4755039402095232,13.277661578372095
1.7176772064776412e+18,-1.523693151308235,0.935509198369412,12.933290795529413
1.7176772066776412e+18,-1.050170905533721,2.090047102988372,9.936780303267444
1.7176772068776412e+18,0.13666912662677907,3.956114899290698,3.8533348066860476
1.7176772070776412e+18,-0.39832149662162786,2.8230299089534885,7.3439065633255804
1.7176772072776412e+18,-1.0088703285258822,1.8902735878199999,11.54669230962353
1.7176772074776412e+18,-1.3812151412476745,0.5790630785279068,13.446272073953487
1.7176772076776412e+18,0.12643007214802326,1.4189994653790698,11.103587438837211
1.7176772078776412e+18,0.029771166064825588,3.0825676945116283,8.05496440654651
1.7176772080776412e+18,0.12752337077027054,3.6080387451764704,3.7086498919411763
1.7176772082776412e+18,-0.877052968594302,3.1540741199651166,9.643798622558137
1.7176772084776412e+18,-1.6997387842073253,0.991018108749128,12.613235972325583
1.7176772086776412e+18,-1.4379456478411765,0.21580445134535292,12.656004906352939
1.7176772088776412e+18,-0.929472481178372,1.916929185418605,9.954587326534885
1.7176772090776412e+18,1.2958525839760464,3.3197353717558133,5.520241856511628
1.7176772092776412e+18,0.26020554827915116,3.2764976024069767,6.520664287127908
1.7176772094776412e+18,-0.8248200391950589,2.1503874764505886,10.29077008717647
1.7176772096776412e+18,-0.84900686257907,0.753238307905814,14.334510115930232
1.7176772098776412e+18,-0.9488376546860462,1.2032002585232557,11.080215697965118
1.7176772100776412e+18,-0.8083288771326164,3.0274771119767445,8.457181226372093
1.7176772102776412e+18,0.06930740588776471,3.5695283552941177,3.7891050156352937
1.7176772104776412e+18,0.0046187065424418425,2.5679995098372097,9.14570200172093
1.7176772106776412e+18,-1.4965157999616274,0.6101697716535466,12.525870046279069
1.7176772108776412e+18,-0.8611346465329409,0.19429719640788234,13.166042047411766
1.7176772110776412e+18,-0.7083868011752674,1.3468252669430234,10.358473588918606
1.7176772112776412e+18,-0.2862483642436047,3.3287501861976736,5.5887433568139535
1.7176772114776412e+18,-0.3677156279101162,3.4722639100697674,5.684734491453488
1.7176772116776412e+18,-1.017428194497647,2.4022250329000006,10.926472697258824
1.7176772118776412e+18,-1.0423803225363952,0.20650615889360466,13.696795064418605
1.7176772120776412e+18,-1.1010323008713376,1.2774334065104653,11.401855535872093
1.7176772122776412e+18,-0.48913746546651166,2.657591238965116,8.438650741069768
1.7176772124776412e+18,0.7280374051741176,3.8007031637999997,3.904185729882353
1.7176772126776412e+18,-0.5565260222388371,3.1849025793023245,8.951215643872091
1.7176772128776412e+18,-1.4802668599009885,1.5366373124104653,12.381076513488372
1.7176772130776412e+18,-0.34801657854220924,0.8294747504141861,13.17399118127907
1.7176772132776412e+18,-0.2652936542942941,2.203592603341176,9.910226866482354
1.7176772134776412e+18,-0.1354448920940349,3.989948278220931,5.554242184000001
1.7176772136776412e+18,0.23043438345002326,3.1357662483720925,5.6910225956627905
1.7176772138776412e+18,-1.0855532594752946,1.9323872621776468,10.605890823305883
1.7176772140776412e+18,-1.3940139552055815,-1.0553460813502908,13.698130574534883
1.7176772142776412e+18,-0.8615274451831977,0.14295724144253485,11.711865180476746
1.7176772144776412e+18,-0.8053795829261629,1.7895531023930236,9.391105430186048
1.7176772146776412e+18,0.12605952492549413,2.708224808494118,5.378051839235295
1.7176772148776412e+18,-0.08369314630558139,2.3991107621162793,7.035343735639536
1.7176772150776412e+18,-0.9906842175509303,0.5955346029678488,11.923212594965117
1.7176772152776412e+18,-0.8601919188065115,-0.7061609174284882,13.730016386976747
1.7176772154776412e+18,-0.9213774761599999,0.634013542982353,10.884077497905881
1.7176772156776412e+18,-0.5701039070823488,2.5220350650697667,8.190242362627908
1.7176772158776412e+18,0.7797819446524418,2.7159650076046518,4.301905601523256
1.7176772160776412e+18,-0.38324573137029416,1.3943681226141174,9.603832968788234
1.7176772162776412e+18,-0.690023273437907,-0.8161751041695349,13.44783022244186
1.7176772164776412e+18,-0.9413252986239536,-0.32603599652310467,12.773499400232557
1.7176772166776412e+18,-0.8298642831543604,0.5128431041851162,9.600226990081396
1.7176772168776412e+18,-0.30143934879376477,2.439384161705883,8.353822388388236
1.7176772170776412e+18,-0.6447265861563953,3.4315302621395354,8.65211282216279
1.7176772172776412e+18,-0.13978536135220923,2.1096348589081395,10.110621695802326
1.7176772174776412e+18,0.723689728059186,1.3089296335918605,8.063701014313954
1.7176772176776412e+18,-0.6999428450677646,3.1216482807529413,8.832049134129411
1.7176772178776412e+18,-0.4850195876291861,2.4819692067790693,10.375724171720929
1.7176772180776412e+18,0.9111646034244185,2.6262619744883717,9.58047239706977
1.7176772182776412e+18,-0.041568335695,3.339712650255814,9.39088285782558
1.7176772184776412e+18,-0.845595371473941,3.8740080131647057,9.01367849462353
1.7176772186776412e+18,-0.586185904770058,5.072561397023256,8.572314972116278
1.7176772188776412e+18,-0.5096155779196512,5.369994823337208,8.280835756093023
1.7176772190776412e+18,-0.9044869644232939,5.4250638064,8.612472472447058
1.7176772192776412e+18,-0.2634330672951161,5.503937244383721,8.440542708988374
1.7176772194776412e+18,-1.0245732736431394,7.123210424593023,7.92959169451163
1.7176772196776412e+18,-5.212124189357674,7.019039134604651,5.738712113953487
1.7176772198776412e+18,5.380472837247765,2.0936916654576474,1.6819572698242355
1.7176772200776412e+18,20.536650679999997,1.4619033398646513,8.346944498430231
1.7176772202776412e+18,10.078123786,1.586274469326744,9.542298472313952
1.7176772204776412e+18,0.6281994293647675,4.348816034406976,8.064647034104652
1.7176772206776412e+18,-0.29687891588572934,5.4889662406,6.867738796717648
1.7176772208776412e+18,0.82307534286,6.5576695841627926,8.376326034186047
1.7176772210776412e+18,0.44111407458622093,5.109511042720929,9.474798690488372
1.7176772212776412e+18,1.6313420281764703,3.473702871082353,7.037769940305883
1.7176772214776412e+18,0.5817897809948024,5.129710926569768,5.841547860697674
1.7176772216776412e+18,-0.8037101733779072,6.57597743077907,7.3640508152441875
1.7176772218776412e+18,-1.4781522757790697,7.253980985906976,6.804019004848837
1.7176772220776412e+18,-3.0889932548235297,6.96987011835294,7.858029562
1.7176772222776412e+18,,,
