Timestamps,Gyro_X,Gyro_Y,Gyro_Z,Label
1.7176767660854646e+18,-0.2851353404668604,-0.8934927332802325,0.0498245467628604,1
1.7176767662854646e+18,-0.7047284171697674,-0.6503827575453487,-0.235108357965814,1
1.7176767664854646e+18,-0.1963610620949767,-1.0434955531784882,-0.2328495790408139,1
1.7176767666854646e+18,-0.0226720658023058,-1.475477394341294,0.4792036557729411,1
1.7176767668854646e+18,-1.6136241694127909,-0.985136657594186,2.216618744418605,1
1.7176767670854646e+18,0.9701207419063952,0.0378061373761511,2.583066581267442,1
1.7176767672854646e+18,3.893492288325582,0.0529783164348604,0.1397211118127907,1
1.7176767674854646e+18,3.060527772082353,-1.1382800393164705,-1.286181179902353,1
1.7176767676854646e+18,0.8025165025915918,0.2435113005949767,0.0627379445363953,1
1.7176767678854646e+18,-0.2142324102576743,0.182296964160814,0.1715571106140813,1
1.7176767680854646e+18,-0.1690000021793023,-1.1695894093104648,-0.4331564030081628,1
1.7176767682854646e+18,0.1079955012754705,-0.7051409844228471,-0.0825619681739647,1
1.7176767684854646e+18,0.3817301095521744,2.0292253248267444,-0.1898759514955581,1
1.7176767686854646e+18,0.8795422847709302,-0.2656800099023255,0.3454262751058139,1
1.7176767688854646e+18,-0.0430246436604823,-0.3495458088388235,0.2741686897588235,1
1.7176767690854646e+18,-0.5612746350023604,-0.6738087138174418,-0.5202827659790699,1
1.7176767692854646e+18,-0.003171524330593,-0.5781160364962443,-0.310912415387093,1
1.7176767694854646e+18,0.2781672196701977,-0.139955513458229,-0.3314545179559069,1
1.7176767696854646e+18,-0.2446243924927059,0.0690618560085176,0.0264163068578823,1
1.7176767698854646e+18,0.0474308091125116,0.021312787696593,0.1850955809539779,1
1.7176767700854646e+18,-0.009763181797629,-0.0935724090818371,0.069244363931093,1
1.7176767702854646e+18,-0.0778248832477337,0.0279328573286186,0.1673662955692441,1
1.7176767704854646e+18,-0.068824697952907,0.1589524049941176,0.2647685590921176,1
1.7176767706854646e+18,0.076809143086279,0.3216877853430233,0.1567116763531395,1
1.7176767708854646e+18,0.0886286660444186,0.1576066640044186,-0.0879751821086046,1
1.7176767710854646e+18,0.0623890576873882,0.3235840574795294,-0.2191225867929412,1
1.7176767712854646e+18,0.0098413155130813,0.0929544416614069,0.0242108442174883,1
1.7176767714854646e+18,-0.0801262810155465,-0.2881541503631395,-0.2580797148355814,1
1.7176767716854646e+18,0.0319887154379069,-0.0070142902222662,0.0992051506088488,1
1.7176767718854646e+18,0.0413321887561047,-0.0884406435184094,-0.2927713185049411,1
1.7176767720854646e+18,-0.0657922675525814,0.0011542507724534,-0.250578863503372,1
1.7176767722854646e+18,-0.0942329955799999,-0.1352532764384069,-0.152613199969186,1
1.7176767724854646e+18,0.0858300526543709,-0.1109039214546511,0.1514980168945267,1
1.7176767726854646e+18,-0.0272427722693294,-0.1020090279761176,0.0228229860280941,1
1.7176767728854646e+18,-0.1730771687836523,0.0177470424506209,0.0782652732940465,1
1.7176767730854646e+18,-0.0764468855778139,-0.091256804722093,0.0661900399784883,1
1.7176767732854646e+18,0.1932428108819767,-0.1578410662873255,0.0170083223507593,1
1.7176767734854646e+18,0.198345997142353,-0.0316230322808694,0.0086509232396352,1
1.7176767736854646e+18,0.1417170771644186,0.034950699757586,-0.0441065681233465,1
1.7176767738854646e+18,0.0356681104742558,0.1826379148348837,-0.0319887158222779,1
1.7176767740854646e+18,0.0220576083833058,0.1093933050251788,0.0158375678216141,1
1.7176767742854646e+18,0.0755447950202325,-0.0048265420268104,-0.012924051935343,1
1.7176767744854646e+18,0.0363357994547674,0.1316378087573256,0.0236283917408162,1
1.7176767746854646e+18,0.092620596767093,-0.0474166027416255,-0.0229109809309837,1
1.7176767748854646e+18,0.0039616380091058,0.02372850335912,-0.0086545165242682,1
1.7176767750854646e+18,-0.022364043577036,-0.0090315648376279,0.0159002419834127,1
1.7176767752854646e+18,-0.0802967547060465,-0.054335001624186,0.0093512034428639,1
1.7176767754854646e+18,-0.2686277868755814,0.1790153443997674,-0.0030223600386906,1
1.7176767756854646e+18,-0.6593081526882353,0.1622295155858823,0.0695792954275258,1
1.7176767758854646e+18,-1.376608637883721,-0.9575483033348836,0.000614417087593,1
1.7176767760854646e+18,-1.3244578332046515,-0.8076733368058139,-0.2920040185837209,1
1.7176767762854646e+18,-1.0471138645352942,-0.0069009753265882,-0.0408219369829529,1
1.7176767764854646e+18,-0.9557370106848836,0.2136499585256976,0.0546972573517325,1
1.7176767766854646e+18,-0.6677355814790698,0.1900961460763837,-0.2253913460395348,1
1.7176767768854646e+18,-0.5907950288686048,1.0871155518627906,0.0847006636577092,1
1.7176767770854646e+18,-0.6322719972152939,0.8825612642789411,0.5470887016469177,1
1.7176767772854646e+18,-0.074628498509,-1.6758684598837206,-0.3092360890661396,1
1.7176767774854646e+18,-0.231080910318279,-0.1404385228048721,-0.1444730714652209,1
1.7176767776854646e+18,0.3227887625666279,1.282592285443023,0.4419429092462686,1
1.7176767778854646e+18,0.3057432134352941,0.2974534178451765,-0.0301282109488353,1
1.7176767780854646e+18,0.0650322377311976,0.1237107719841627,-0.0671631618151941,1
1.7176767782854646e+18,-0.7607575041337209,-0.2676546642380233,-0.256431798864186,1
1.7176767784854646e+18,-0.7755034947081395,-0.2431348364110465,-0.2418562818448836,1
1.7176767786854646e+18,-0.4698682066235293,-0.1335871442663529,-0.1131195811823764,1
1.7176767788854646e+18,-0.7928350072244186,-0.2674699860896512,-0.3026302243844395,1
1.7176767790854646e+18,0.4187939767596279,-0.2929416236140349,0.0471679952760465,1
1.7176767792854646e+18,0.247675125566,-0.1308130997897529,0.0992313906916588,1
1.7176767794854646e+18,0.1082331639216395,-0.0185781031239767,-0.0113045495677209,1
1.7176767796854646e+18,0.0306959549504651,0.086135484919279,0.025801933648779,1
1.7176767798854646e+18,-0.1495517722976395,-0.1421148496048837,0.0111837976673837,1
1.7176767800854646e+18,-0.0104116510174047,0.0397547202266988,-0.0058804718048482,1
1.7176767802854646e+18,0.1324404556032558,0.100171168682093,0.0312144800072907,1
1.7176767804854646e+18,0.0676745835547907,-0.1735814879094302,0.0734920051439534,1
1.7176767806854646e+18,-0.0219236527194767,0.0722276567810232,-0.0659698442969988,1
1.7176767808854646e+18,-0.0378933792609294,-0.0651271687313482,-0.1218585398888682,1
1.7176767810854646e+18,0.0005078702540906,-0.0151970370611721,-0.0284087640049767,1
1.7176767812854646e+18,0.0042156772493476,0.0787624895890697,0.0655365570925814,1
1.7176767814854646e+18,-0.1029468850969411,0.0091971081266141,-0.0124059448189294,1
1.7176767816854646e+18,0.0145151414894651,-0.0004226331078488,-0.0397168653911627,1
1.7176767818854646e+18,0.0318466537368604,-0.0422455615390139,-0.0306533366295686,1
1.7176767820854646e+18,0.0252407904353488,0.011624188550843,0.0298222765158139,1
1.7176767822854646e+18,0.0120537995624552,0.0070986081307847,0.0074435669808141,1
1.7176767824854646e+18,-0.0003018808264093,0.0120503732203837,-0.0056078806999034,1
1.7176767826854646e+18,-0.004705789670329,-0.0035621939543965,0.0011542502446988,1
1.7176767828854646e+18,-0.0028447830387779,-0.0060624778516569,-0.005494231511643,1
1.7176767830854646e+18,-0.0017014380503282,0.0049713613464999,0.0029878473382352,1
1.7176767832854646e+18,-0.0068651256296744,-0.0119154144603651,-0.00309339068295,1
1.7176767834854646e+18,-0.0142523274930499,-0.0104663867276627,-0.0104521805032581,1
1.7176767836854646e+18,-0.001931410646847,0.003375926224827,0.0050863475663552,1
1.7176767838854646e+18,-0.0087971630814883,-0.0010477041163895,-0.0075399182116767,1
1.7176767872854646e+18,1.0305679485616277,0.0458752338934779,0.0845017774456744,2
1.7176767874854646e+18,0.683358260822353,0.1398934247033529,0.1995569469074117,2
1.7176767876854646e+18,0.0680155313753372,-0.3090087886155814,0.0153888198957232,2
1.7176767878854646e+18,-0.3509808826406976,0.08938869601185,-0.1615062544894302,2
1.7176767880854646e+18,-0.4232049849453488,0.6236538736209303,0.1003558496160465,2
1.7176767882854646e+18,-0.5864068346445882,-0.0195063487874823,-0.0727450112987294,2
1.7176767884854646e+18,0.1863244116961162,-0.026547756638593,0.0960940019222116,2
1.7176767886854646e+18,0.5976779124779069,-0.6322414982465117,-0.029800967182093,2
1.7176767888854646e+18,0.7040845404611765,-0.3233720531141529,-0.0222229011843694,2
1.7176767890854646e+18,-0.4095102515583604,0.1699091965839534,0.0790324063908651,2
1.7176767892854646e+18,-0.6934061071255814,0.1958354343897697,-0.0968256188190557,2
1.7176767894854646e+18,-0.2232959384866395,-0.1053066941793488,0.0171787957481162,2
1.7176767896854646e+18,0.3757698765529411,-0.0460681878733647,-0.0575811916003294,2
1.7176767898854646e+18,0.3146770476534883,-0.0487235693059534,0.0410025223252907,2
1.7176767900854646e+18,0.1415039859244186,-0.0128246089029186,0.0144512138403604,2
1.7176767902854646e+18,-0.5275776303046512,0.3003927571203256,0.0769725132452093,2
1.7176767904854646e+18,-0.6130980295270587,-0.1998048850727058,-0.0766401737603482,2
1.7176767906854646e+18,0.0634695611627906,-0.0926490090121628,-0.0280962282139302,2
1.7176767908854646e+18,0.4975813266860464,0.1405024507872442,0.0756087225239651,2
1.7176767910854646e+18,0.4033234717235293,0.0315619459032823,-0.0191182708795529,2
1.7176767912854646e+18,0.061807441488779,0.1861752476019767,0.0234721243577686,2
1.7176767914854646e+18,-0.4745886606511628,0.0770009261220697,-0.0642508997559604,2
1.7176767916854646e+18,-0.5436021758406977,0.0065241780002581,-0.0156090155530418,2
1.7176767918854646e+18,-0.0168652571792588,-0.1594734369220941,-0.054519681794247,2
1.7176767920854646e+18,0.418509853266279,0.0023049492247674,0.1098455624236046,2
1.7176767922854646e+18,0.4597787427337211,-0.2968341131302326,-0.033196238958,2
1.7176767924854646e+18,0.4296901000872092,-0.016347736791686,-0.0285224130067453,2
1.7176767926854646e+18,-0.1854351902121294,0.3570019551952941,0.0048276283274117,2
1.7176767928854646e+18,-0.3655706049744185,0.0902552709017325,-0.1061732704503255,2
1.7176767930854646e+18,-0.8886271264511628,-0.6121681951712791,-0.1348412968212791,2
1.7176767932854646e+18,-0.2995687987459894,0.0904967756797685,-0.0762124842729534,2
1.7176767934854646e+18,-0.1068851664330588,0.1776233069343176,0.0375699811009411,2
1.7176767936854646e+18,0.0743940957935,0.0096495329814302,-0.0383388680809872,2
1.7176767938854646e+18,-0.0703808566711627,-0.077064853581022,-0.074266240146779,2
1.7176767940854646e+18,-0.0957314940875294,-0.0612607541477211,-0.0080508387978105,2
1.7176767942854646e+18,0.0116028794144651,0.0339562682851569,0.0486028169096511,2
1.7176767944854646e+18,0.0193594411827081,-0.0051532837068593,-0.0027950615607279,2
1.7176767946854646e+18,0.0431405491923255,-0.0028660922087674,-0.0037752864104488,2
1.7176767948854646e+18,-0.0743727870414823,-0.0353600874296564,0.0104907042640117,2
1.7176767950854646e+18,-0.0717872664927907,-0.0056931177382034,-0.0163903543563918,2
1.7176767952854646e+18,-0.0557201018022092,-0.0935297911126744,-0.0732718095956953,2
1.7176767954854646e+18,0.0087616476173244,0.0109422927929895,0.0654371136509302,2
1.7176767956854646e+18,0.0209508652755411,0.052101375602,0.0061068513663576,2
1.7176767958854646e+18,0.0046134498000569,0.0123629086958395,0.0055865714970965,2
1.7176767960854646e+18,-0.0027169275937906,-0.0041162342271709,-0.0055226437062953,2
1.7176767962854646e+18,0.0018056444640294,0.0052300805049305,0.0046982687661376,2
1.7176767964854646e+18,-0.0036119155462511,0.0037397710007023,0.0020492381501639,2
1.7176767966854646e+18,0.0101112327422674,0.0036119155262662,-0.0023972891334581,2
1.7176767968854646e+18,0.0114892301702813,0.001537816471393,0.0014809918648244,2
1.7176767970854646e+18,0.0140373134770823,0.003965231094827,-0.0070159617368682,2
1.7176767972854646e+18,0.0167597145371976,0.0100899234046395,0.0061406115730093,2
1.7176767974854646e+18,0.0153533049624418,0.0061264054874744,0.0017793211662593,2
1.7176767976854646e+18,0.008420700129243,0.0024043921574999,0.001935588954329,2
1.7176767978854646e+18,-0.0010833865861447,-0.007404040420807,-0.0005911015274929,2
1.7176768066854646e+18,0.5089096504094118,-0.2134738834683411,0.0865685236717647,3
1.7176768068854646e+18,0.1891230253418605,-0.3980245720174419,-0.116458528589314,3
1.7176768070854646e+18,-0.3642494347546512,0.1919287414361976,-0.0066733422208581,3
1.7176768072854646e+18,-0.3485090117465116,0.2757876915626291,-0.0130803193762313,3
1.7176768074854646e+18,-0.4872311385282352,-0.0804347211631764,-0.067656867606847,3
1.7176768076854646e+18,0.2203339541837197,-0.1409357382529395,-0.0167028903072441,3
1.7176768078854646e+18,0.6662226215360465,0.006481559443593,0.1546091653940697,3
1.7176768080854646e+18,0.3788178464447557,-0.0270307665135581,-0.0016585697726046,3
1.7176768082854646e+18,-0.3779797697752941,0.0897737658762976,-0.0140588728370458,3
1.7176768084854646e+18,-0.5974293091290699,0.0962076513260267,-0.0281672588343348,3
1.7176768086854646e+18,-0.1827089456296395,-0.0593213628731372,-0.0518205114104627,3
1.7176768088854646e+18,0.5558384418482354,-0.0263336622081258,0.0476887756590352,3
1.7176768090854646e+18,0.6142849107813955,-0.1693338487083721,0.0730516142619651,3
1.7176768092854646e+18,-0.3015292485983488,0.0430624151229534,-0.0203822847527418,3
1.7176768094854646e+18,-0.4943352185697675,0.1955513113810465,-0.0318892727236162,3
1.7176768096854646e+18,-0.4096010035608942,-0.2349188310317647,-0.0681024396918094,3
1.7176768098854646e+18,0.30459067433,0.1022026499252093,0.0342830091473372,3
1.7176768100854646e+18,0.7055310613825581,-0.055613556158279,0.1001285509765837,3
1.7176768102854646e+18,0.3131285771634651,-0.1985843267709279,-0.0817528855858023,3
1.7176768104854646e+18,-0.4523040469988235,0.1836600893071764,0.0325249559223529,3
1.7176768106854646e+18,-0.6321491550569768,0.2142039961124418,-0.0114181994570814,3
1.7176768108854646e+18,-0.2766542666011512,-0.2997179628208953,-0.1094264807621046,3
1.7176768110854646e+18,0.3840920111705883,0.1248158440289764,0.0947612972628235,3
1.7176768112854646e+18,0.5951776303558138,-0.009798697252272,0.0767310092636511,3
1.7176768114854646e+18,0.3209135507472209,-0.0268318804145348,0.0045069034365244,3
1.7176768116854646e+18,-0.17536436266,0.1039073893464186,-0.0815113812585116,3
1.7176768118854646e+18,-0.2061758459281764,0.3558952099312941,0.1442341576969764,3
1.7176768120854646e+18,-1.0567854119441862,-0.3081564216098721,-0.2866625041909186,3
1.7176768122854646e+18,-0.3769781521918605,-0.0518063050671837,-0.1116994659228953,3
1.7176768124854646e+18,-0.0541716310695814,-0.11716883603865,-0.2054743123530232,3
1.7176768126854646e+18,-0.0089743221941882,-0.0459244548529294,0.0187697185733647,3
1.7176768128854646e+18,0.0495049077696511,-0.0455840080648813,-0.0784570574626279,3
1.7176768130854646e+18,-0.0800268383064767,-0.0594634243635465,0.1414826755773255,3
1.7176768132854646e+18,-0.1356461172529411,-0.1141832036818823,-0.0294095459193058,3
1.7176768134854646e+18,-0.0777254403954651,-0.2054601059593023,-0.182517162244186,3
1.7176768136854646e+18,-0.0333454035387209,-0.0416631090053093,-0.0354834305074744,3
1.7176768138854646e+18,-0.0024470106244162,0.0842744787751162,0.0661900398275581,3
1.7176768140854646e+18,0.0106595903766211,0.1089189869492941,0.0554647252849411,3
1.7176768142854646e+18,0.0333383002576744,0.056430409642093,0.0191676580775697,3
1.7176768144854646e+18,0.0385945790234883,0.0182442582903488,0.0117520441709232,3
1.7176768146854646e+18,0.045868131355,0.0205172436132674,0.0179317226997674,3
1.7176768148854646e+18,0.0847395213642352,-0.0018990707774764,0.0096283069360341,3
1.7176768150854646e+18,0.029531050082779,-0.0187769887177069,-0.0091168014957953,3
1.7176768152854646e+18,-0.0048052328573348,-0.0041872650288918,0.0017935273873604,3
1.7176768154854646e+18,-0.0138829674658139,-0.0080371336827755,0.0003160870217313,3
1.7176768156854646e+18,-0.0111303154594117,-0.0011516597361635,-0.0004186220726882,3
1.7176768158854646e+18,-0.0106865820013848,0.0075896398251011,0.0118656934147104,3
1.7176768160854646e+18,-0.0189261532407441,-0.0089463277741406,0.0013673426122058,3
1.7176768162854646e+18,-0.013746254085847,0.0010474534267129,0.0029159809823541,3
1.7176768164854646e+18,-0.0173776821703023,-0.0085201430561232,-0.0007209624389511,3
1.7176768166854646e+18,-0.0077174951052255,0.0021202690165255,-0.0003942208073848,3
1.7176768168854646e+18,-0.0122634654989767,0.0048194389877127,0.0005291793982651,3
1.7176768170854646e+18,-0.0045186026486011,-0.0029339476612494,-0.0032645332877223,3
