Timestamps,Acc_X,Acc_Y,Acc_Z
1.717769647233173e+18,1.2948502023571429,-0.7764924185666666,9.75147171
1.717769647433173e+18,0.54523368069,-1.040606048615,9.801115974400002
1.717769647633173e+18,1.7014967194105002,0.1491872635194999,9.814475692350001
1.717769647833173e+18,0.947769103972,0.40234831234549995,9.82864373085
1.717769648033173e+18,-0.04760101318368502,-0.19558328243950002,9.819003776250002
1.717769648233173e+18,0.06741231537700001,0.45995601650699997,9.839114455750002
1.717769648433173e+18,-0.047391448975,0.148872917165,9.830589683500003
1.717769648633173e+18,-0.045617637633500005,0.15031741333,9.8281497574
1.717769648833173e+18,-0.043282493591000004,0.143618843075,9.830282821549998
1.717769649033173e+18,-0.04314777374285,0.13588742064499998,9.833261627200002
1.717769649233173e+18,-0.0498687973035,0.128036247255,9.829983444199998
1.717769649433173e+18,-1.10869944759595,0.08389304347934999,9.8281871791
1.717769649633173e+18,0.6752982100900001,-0.37360807807400004,9.829287391500003
1.717769649833173e+18,0.16544345859999993,-0.8018899612558499,9.864307068050001
1.717769650033173e+18,0.12605287171350005,0.85005979156,9.771155777100002
1.717769650233173e+18,1.842331352315,3.972199768175,13.02508170295
1.717769650433173e+18,3.32329916391,-1.474845542953,10.537532089749998
1.717769650633173e+18,0.30224398031,6.11210481265,8.633356841300001
1.717769650833173e+18,6.4159130400999995,3.7637133179100006,5.863426940950001
1.717769651033173e+18,8.297545165750002,2.05512135306,8.382807861649999
1.717769651233173e+18,6.0845620882855,6.4920297546,7.796170280449999
1.717769651433173e+18,6.959807006649998,6.677935661299999,2.280979179417
1.717769651633173e+18,6.85320618445,5.7440352171,2.98618519592
1.717769651833173e+18,7.298155906699999,4.16196015932,3.21821019728
1.717769652033173e+18,8.86380262725,3.0344448394499994,6.4292278517599994
1.717769652233173e+18,8.5842888795,3.3882490996000003,2.998841377215
1.717769652433173e+18,8.39209604635,3.3912353896500003,3.15757878115
1.717769652633173e+18,8.27070597845,3.1711256102500007,2.8680882796500002
1.717769652833173e+18,9.374667778150002,2.8542196197500003,3.78254415885
1.717769653033173e+18,7.4456367188,1.5103891296200003,5.969608634950001
1.717769653233173e+18,5.13619422905,-0.02448907470500001,8.1193631974
1.717769653433173e+18,4.9705561751,-0.006316864021999996,8.333245925950003
1.717769653633173e+18,4.3708732223,-0.4885540466169999,8.72962914295
1.717769653833173e+18,4.80562165835,-0.27640770721925,8.6536770859
1.717769654033173e+18,3.4947683062380954,-1.1335784257142858,9.039053192238097
1.717769654233173e+18,3.1038704680999993,-0.660097320545,9.346773285149999
1.717769654433173e+18,2.964465362565,-0.04425547018700003,9.3588232268
1.717769654633173e+18,0.7397392044000001,-0.19933298496000001,9.733576423199999
1.717769654833173e+18,1.5596367187999998,-0.40719822696399993,9.767653060999999
1.717769655033173e+18,2.5132511672500004,-1.0946511611649998,9.494980087300002
1.717769655233173e+18,1.1649075622349998,-0.904224655105,9.8541057816
1.717769655433173e+18,0.3903582458790001,-1.6341667329,9.5810286485
1.717769655633173e+18,0.16772621155050002,-1.08123156733,9.68253256985
1.717769655833173e+18,0.0579669570955,-0.8641155624700001,9.8200141754
1.717769656033173e+18,0.7572527847300001,-1.1174263001000002,9.739062515250001
1.717769656233173e+18,0.958030265855,-0.85689308166,9.8041771091
1.717769656433173e+18,0.9998233566789997,-0.88293891913985,9.65185386645
1.717769656633173e+18,-1.10576554873,-1.0783575439499997,9.804326798149999
1.717769656833173e+18,0.98753391261435,-1.2243639221150002,9.642303726199998
1.717769657033173e+18,0.5261034622349999,-0.9693093109400002,9.777218170400001
1.717769657233173e+18,0.582206794745,-1.37407509605,9.717709419150001
1.717769657433173e+18,0.48228957363100006,-1.54790112295,9.902148376400001
1.717769657633173e+18,-0.04235442350810001,-1.9008371888240003,11.326945496499999
1.717769657833173e+18,-0.6763759689455,3.4709296645750003,11.1659926984
1.717769658033173e+18,-0.014826667802499999,4.9465311356,8.2948058624
1.717769658233173e+18,0.88048402408,1.4010115814081998,6.883203803949999
1.717769658433173e+18,0.776390487645,1.901406005885,7.7571090088000005
1.717769658633173e+18,0.25043671417300006,2.2222488098000004,7.204765113849999
1.717769658833173e+18,0.7623721389679999,-1.544458282454,9.5188255004
1.717769659033173e+18,2.25044268038,-3.52742218785,14.051482292500001
1.717769659233173e+18,1.498893035914,-2.98970288085,11.7210534438
1.717769659433173e+18,1.876467865082,-0.825069259675,9.46066394755
1.717769659633173e+18,0.5794225845465,1.5448175354999998,6.617895515400001
1.717769659833173e+18,-0.6540873184,3.7784202346999995,4.5093652268
1.717769660033173e+18,0.5397625579235,-2.6995537491199997,10.9371785204
1.717769660233173e+18,2.79722563935,-4.101523338250001,13.3339419255
1.717769660433173e+18,1.5453115081725,-2.92877208705,11.733050994349998
1.717769660633173e+18,1.3607078933575,-1.6059953154499997,9.1533679736
1.717769660833173e+18,0.398186965915,0.05654491422664999,8.876077102699998
1.717769661033173e+18,-0.34553859164576195,3.6466809736666668,4.619294128476191
1.717769661233173e+18,0.25667873378,-1.150687134,8.972948158399998
1.717769661433173e+18,1.5606620864749998,-3.3754207764500004,12.4605232075
1.717769661633173e+18,1.6617768173239997,-4.1324714813500005,13.036854720000003
1.717769661833173e+18,2.1683009949,-2.39727983087,9.504425446
1.717769662033173e+18,1.23803798673621,-0.4564308471955,9.416760246249998
1.717769662233173e+18,-0.293749145532,2.0014205245429997,5.7084018174
1.717769662433173e+18,-1.1503503341550003,2.54563632198,5.9765691603999995
1.717769662633173e+18,1.548103202849,-3.523492858849999,11.142663711749998
1.717769662833173e+18,2.74077802283,-4.7441594696000005,13.111519454500002
1.717769663033173e+18,1.51074838262,-2.77414363855,11.165506210149998
1.717769663233173e+18,0.44066114048500005,-1.9551517410805002,8.946887352050002
1.717769663433173e+18,0.29246182251499997,-1.4676829376340002,9.4324027175
1.717769663633173e+18,-0.5545667724595,2.569070091265,5.903730628949999
1.717769663833173e+18,-0.7818241882050001,1.2357477493150002,6.4708263472
1.717769664033173e+18,1.8314040756300003,-3.6299589614,11.6480128325
1.717769664233173e+18,3.5270105438500003,-4.940094520550001,13.351507897
1.717769664433173e+18,1.4386133881,-2.4928411102000005,10.653712989800002
1.717769664633173e+18,0.21722827154749996,-2.0778141632350002,8.204139404299998
1.717769664833173e+18,0.25084835814650003,-0.4425771560049999,9.475505584499999
1.717769665033173e+18,-1.229198867706,2.002954834051,5.561347618199999
1.717769665233173e+18,-1.0125319289865,1.401146301225,6.3699885406
1.717769665433173e+18,2.548667518585,-3.1445558623900007,12.070471823999998
1.717769665633173e+18,2.4388633575000003,-2.8370278702335,12.1303697665
1.717769665833173e+18,0.6303990784,-2.73417675011,9.23378823845
1.717769666033173e+18,0.10808274077750002,-1.2510908431925,9.892815285200001
1.717769666233173e+18,-0.5578150177040001,-2.1030591659499995,9.636503288300002
1.717769666433173e+18,0.9815987547949998,-2.0548219757499995,9.586911415150002
1.717769666633173e+18,0.2788027267015,-2.14542107395,9.65645679475
1.717769666833173e+18,0.456745193456,-2.0811597062000002,9.691701004099999
1.717769667033173e+18,0.0839903411885,-2.11858937065,9.530680847200001
1.717769667233173e+18,0.770545143135,-1.62678707875,9.772660148700002
1.717769667433173e+18,0.47972241211100003,-1.70793333445,9.54468422695
1.717769667633173e+18,0.0998573455795,-1.6573385468500004,9.701026611299998
1.717769667833173e+18,0.26756858824999996,-1.5129338378000001,9.711295257649999
1.717769668033173e+18,0.42051125663333333,-1.3818835014285713,9.717335553857144
1.717769668233173e+18,0.27286008454,-1.33953442385,9.695465675349999
1.717769668433173e+18,0.316007858265,-1.2813204803499998,9.627566871549998
1.717769668633173e+18,0.35583254242500006,-1.5174694061500003,9.699162986850002
1.717769668833173e+18,0.33070729066000004,-1.66050446315,9.638651321400001
1.717769669033173e+18,0.36198474885,-1.92796826935,9.696678153899999
1.717769669233173e+18,0.32424073791499997,-1.9701505508500001,9.621377243150002
1.717769669433173e+18,0.34352064513499997,-2.0759804763500003,9.614723579350002
1.717769669633173e+18,0.356775581355,-2.10626250465,9.597965927050002
1.717769669833173e+18,0.33320709229,-2.13998737335,9.5854893723
1.717769670033173e+18,0.34138758086000004,-2.1586535567999996,9.5785138778
1.717769670233173e+18,0.335976333615,-2.1627550278500003,9.56073085785
1.717769670433173e+18,0.313844856275,-2.2015094376,9.578349220200002
1.717769670633173e+18,0.35015933990500003,-2.21549784845,9.6048740615
1.717769670833173e+18,0.33941168977,-2.1139415359,9.5897854386
1.717769671033173e+18,0.320221595765,-2.03485350035,9.600106475900002
1.717769671233173e+18,0.33199461365,-1.9462302932500002,9.64296984105
1.717769671433173e+18,0.297738349915,-1.8741252365,9.625403869649999
1.717769671633173e+18,0.320086875925,-1.8110613785500003,9.61853315735
1.717769671833173e+18,0.34811608888,-1.7832043076000001,9.611991760250001
1.717769672033173e+18,0.32371682738500007,-1.8636994171000005,9.6242512665
1.717769672233173e+18,0.323155494695,-1.9750079498000002,9.6294679184
1.717769672433173e+18,0.36096686554000007,-2.0055444487999994,9.6057647096
1.717769672633173e+18,0.31947315216,-2.07549398815,9.6029804992
1.717769672833173e+18,0.32901580811,-2.1213586121000008,9.59274927525
1.717769673033173e+18,0.346993423465,-2.1755983199999998,9.581342994600002
1.717769673233173e+18,0.30820159149,-2.1920191727500002,9.56910594175
1.717769673433173e+18,0.344957656855,-2.2054537352,9.5611649552
1.717769673633173e+18,0.34156720733500007,-2.2295760726,9.5654834748
1.717769673833173e+18,0.33275054168499996,-2.2699246672999993,9.59302619935
1.717769674033173e+18,0.339681129465,-2.1553379515999995,9.5793820725
1.717769674233173e+18,0.34744248962499996,-2.09898763275,9.605008781499999
1.717769674433173e+18,0.31672636414499994,-1.9620972976000002,9.616632110649999
1.717769674633173e+18,0.306951690675,-1.9159183272500002,9.626930694550001
1.717769674833173e+18,0.30922838482857135,-1.849240199428571,9.598012259380951
1.717769675033173e+18,0.33655263519,-1.8690133667499995,9.60628113555
1.717769675233173e+18,0.309264381405,-1.97262041475,9.623218414300002
1.717769675433173e+18,0.32650103760500004,-2.0117415619000005,9.60958925635
1.717769675633173e+18,0.332795448305,-2.1027523041,9.6026511841
1.717769675833173e+18,0.31868728636500004,-2.12424011995,9.59069853985
1.717769676033173e+18,0.32909065246499997,-2.1638627243,9.588543022200001
1.717769676233173e+18,0.32122451019500003,-2.2101240234499997,9.563709663450002
1.717769676433173e+18,0.30719119261500005,-2.2024599609499997,9.570834846450001
1.717769676633173e+18,0.32930021667500003,-2.2255120238500004,9.5666585312
1.717769676833173e+18,0.32111972808,-2.2511237641,9.5691733017
1.717769677033173e+18,0.31673384857,-2.17827026355,9.588078987099998
1.717769677233173e+18,0.31505733491000004,-2.1252205809999998,9.5949946059
1.717769677433173e+18,0.31006521607000004,-2.0543055496,9.60851898185
1.717769677633173e+18,0.3175945587150001,-2.0015327911,9.612672843899999
1.717769677833173e+18,0.31379246520500004,-1.8905984802000002,9.615240005550001
1.717769678033173e+18,0.298950828555,-1.8432968446,9.591207481400001
1.717769678233173e+18,0.30573921203499993,-1.8843265229000004,9.615442085200002
1.717769678433173e+18,0.31861244200499994,-1.9699185334,9.62987207795
1.717769678633173e+18,0.320588333135,-2.0200567703999996,9.60426782215
1.717769678833173e+18,0.30821656036,-2.06829396055,9.6097464296
1.717769679033173e+18,0.32215258026500004,-2.1160970536,9.589650718700002
1.717769679233173e+18,0.312288093565,-2.146813179,9.59157421865
1.717769679433173e+18,0.319488121035,-2.1966146162999998,9.5755724945
1.717769679633173e+18,0.327638671875,-2.1955069197999997,9.5662169494
1.717769679833173e+18,0.310177482605,-2.2335203705500004,9.5773986968
1.717769680033173e+18,0.31433882904000005,-2.21477934255,9.594283584550002
1.717769680233173e+18,0.30856832886499996,-2.12450207525,9.5912449035
1.717769680433173e+18,0.31900911712499996,-2.06643782045,9.59704534155
1.717769680633173e+18,0.3125650177,-1.9898570708500007,9.6168416747
1.717769680833173e+18,0.31583571625000006,-1.9492540053000003,9.6149855347
1.717769681033173e+18,0.31067893981500005,-1.87541255955,9.62846500395
1.717769681233173e+18,0.309174568185,-1.8362839279499998,9.596132240250002
1.717769681433173e+18,0.31119536591,-1.8905236359500002,9.6164749375
1.717769681633173e+18,0.31322364806499997,-1.940714264,9.6292508696
1.717769681833173e+18,0.3259364972761905,-2.033136356857143,9.606615796761904
1.717769682033173e+18,0.3128868484550001,-2.0492535552499995,9.60189525595
1.717769682233173e+18,0.321351745605,-2.1027148819,9.596034942700001
1.717769682433173e+18,0.31786399841499996,-2.1287532348499996,9.5853471679
1.717769682633173e+18,0.32022159576,-2.1901106414500005,9.583640716549999
1.717769682833173e+18,0.31793135832999997,-2.1993688888999996,9.56882901765
1.717769683033173e+18,0.31338830566500003,-2.19832106775,9.569397834800004
1.717769683233173e+18,0.31516211699999996,-2.2034104843500004,9.57345439905
1.717769683433173e+18,0.31813343810999994,-2.2320234833499994,9.59434346005
1.717769683633173e+18,0.31615006257499995,-2.1741538238,9.5811259461
1.717769683833173e+18,0.29751381683000006,-2.0968246306999996,9.596199600149998
1.717769684033173e+18,0.312812004085,-2.0303403854,9.602965530349998
1.717769684233173e+18,0.31146480560500006,-1.9683393173499997,9.62316602335
1.717769684433173e+18,0.302214042665,-1.9324140244000003,9.59317588805
1.717769684633173e+18,0.305911354075,-1.9108214264499999,9.60856388855
1.717769684833173e+18,0.29928762817,-1.9745289459,9.61139300535
1.717769685033173e+18,0.309496398925,-2.0169956359000003,9.611041236900002
1.717769685233173e+18,0.29193042756,-2.04374501035,9.60295804595
1.717769685433173e+18,0.307116348265,-2.0859272919,9.5940590515
1.717769685633173e+18,0.31376252746499994,-2.151498436,9.592240333550002
1.717769685833173e+18,0.3122955779950001,-2.1786594544,9.578873130949997
1.717769686033173e+18,0.307228614805,-2.1730835496000003,9.576919692999999
1.717769686233173e+18,0.31894175720000006,-2.20174893965,9.5668680953
1.717769686433173e+18,0.30546977234499995,-2.2050869978999996,9.577144226149999
1.717769686633173e+18,0.312243186955,-2.2114936752000007,9.580557128850002
1.717769686833173e+18,0.32638128662999993,-2.16263527675,9.59250228885
1.717769687033173e+18,0.31034214020999995,-2.11869415275,9.589680656399999
1.717769687233173e+18,0.3126248932,-2.0273990020499997,9.607029579
1.717769687433173e+18,0.300208213805,-1.9729871521,9.6108316727
1.717769687633173e+18,0.310963348375,-1.9277736740000002,9.6154795075
1.717769687833173e+18,0.31000534057499995,-1.8905535737,9.6018952561
1.717769688033173e+18,0.30778994751,-1.9315982208500002,9.615479507500002
1.717769688233173e+18,0.29955706787999997,-1.95031679535,9.612485732950002
1.717769688433173e+18,0.31100825499999996,-2.0311187667499997,9.62185624695
1.717769688633173e+18,0.313590385435,-2.0540735321,9.597898567200001
1.717769688833173e+18,0.30626312257142857,-2.096041259761905,9.597998003333334
1.717769689033173e+18,0.318051109305,-2.1354592895,9.590189597999998
1.717769689233173e+18,0.31249017333500007,-2.151670577949999,9.589538452200001
1.717769689433173e+18,0.29474457550500005,-2.1927451628999997,9.574749206549999
1.717769689633173e+18,0.32169602966999994,-2.1864282989,9.570168731599999
1.717769689833173e+18,0.30502819061499997,-2.2082005233999995,9.5879143296
1.717769690033173e+18,0.306936721795,-2.1735101623,9.589081901650001
1.717769690233173e+18,0.29660071564500007,-2.11321554555,9.589343856850002
1.717769690433173e+18,0.301151252755,-2.0625758514499997,9.599904396
1.717769690633173e+18,0.31028226471,-2.01588793945,9.61153520965
1.717769690833173e+18,0.3106939087,-1.9828067322000003,9.607493614149998
1.717769691033173e+18,0.31056667327000004,-1.9252888412499995,9.60782292935
1.717769691233173e+18,0.30578411865,-1.9338734894000003,9.613331474199999
1.717769691433173e+18,0.301285972595,-1.9437379760999995,9.607269081150001
1.717769691633173e+18,0.30683942413,-1.99138389585,9.616444999749998
1.717769691833173e+18,0.31539413451500004,-2.0355645218,9.603100250249998
1.717769692033173e+18,0.314757957455,-2.091645401,9.6002337112
1.717769692233173e+18,0.31537916565,-2.1299507447,9.5892091369
1.717769692433173e+18,0.31394963836000006,-2.1452863541,9.5919185027
1.717769692633173e+18,0.31807356261499997,-2.1735101624000004,9.57628351595
1.717769692833173e+18,0.30322444153,-2.17092054745,9.58045983125
1.717769693033173e+18,0.30868807983,-2.1899908905,9.5662169495
1.717769693233173e+18,0.323035743715,-2.19577635955,9.58831848905
1.717769693433173e+18,0.30344149017000005,-2.1876781997,9.584434066650001
1.717769693633173e+18,0.30892009735000003,-2.1100496292500006,9.59981458275
1.717769693833173e+18,0.293928771975,-2.0555779037999997,9.600009178300002
1.717769694033173e+18,0.29222232055999997,-2.01992953495,9.615689071699999
1.717769694233173e+18,0.31381491851,-1.9675459672,9.6148433303
1.717769694433173e+18,0.303613632205,-1.9114950255999996,9.59512932585
1.717769694633173e+18,0.292626480105,-1.8983074493,9.6078603516
1.717769694833173e+18,0.30437704469,-1.9564839705499995,9.622028388899999
1.717769695033173e+18,0.30214668273,-1.9926188278499999,9.6132641144
1.717769695233173e+18,0.30341155241999995,-2.0456685104999996,9.602134758050001
1.717769695433173e+18,0.303987854005,-2.0827838288500002,9.597419563249998
1.717769695633173e+18,0.304444404615,-2.12721144095,9.588176284800001
1.717769695833173e+18,0.30710423061428577,-2.1401851763333335,9.590064500999999
1.717769696033173e+18,0.30321695708499996,-2.15780781555,9.578491424549998
1.717769696233173e+18,0.31802117158,-2.1645961991,9.57152341465
1.717769696433173e+18,0.307123832705,-2.1933888245500004,9.57941201025
1.717769696633173e+18,0.31555130767499995,-2.19890485375,9.57437498475
1.717769696833173e+18,0.29810508728499996,-2.1733604737,9.58965820315
1.717769697033173e+18,0.30029054260500004,-2.12626091775,9.594321006750002
1.717769697233173e+18,0.31600785828,-2.0867655486,9.599402938999999
1.717769697433173e+18,0.313740074165,-2.0425624694500004,9.601865318349999
1.717769697633173e+18,0.29294082641499997,-1.9800150374999999,9.608459106500002
1.717769697833173e+18,0.31335088348999995,-1.9481762466000003,9.607493614300001
1.717769698033173e+18,0.305267692575,-1.9045794067,9.605315643299999
1.717769698233173e+18,0.29406349181999997,-1.9617604980499994,9.60982875825
1.717769698433173e+18,0.3074681167550001,-2.0241133347500004,9.6090653458
1.717769698633173e+18,0.302558326725,-2.06185734565,9.61075682845
1.717769698833173e+18,0.301083892815,-2.0815638656499997,9.59444075785
1.717769699033173e+18,0.29810508727000007,-2.11879893495,9.597681518449999
1.717769699233173e+18,0.3044444046,-2.13003307345,9.582937179499998
1.717769699433173e+18,0.314847770695,-2.1683084793500003,9.577892669650002
1.717769699633173e+18,0.31516960143999995,-2.18972893525,9.57185272985
1.717769699833173e+18,0.30388307189999997,-2.1792507247499997,9.59351268765
1.717769700033173e+18,0.30187724303999997,-2.1631591873000002,9.5885879287
1.717769700233173e+18,0.30690678407000005,-2.0788994064499997,9.60205242915
1.717769700433173e+18,0.294415260315,-2.0365824051,9.59929067235
1.717769700633173e+18,0.305387443545,-2.0039203263,9.619401352
1.717769700833173e+18,0.29778325652500004,-1.9454369430000003,9.621758949199998
1.717769701033173e+18,0.30544731902000005,-1.8812354507999998,9.601805442850003
1.717769701233173e+18,0.29327762603999996,-1.8687439269,9.605742256149998
1.717769701433173e+18,0.294624824525,-1.9112106171499998,9.61880259695
1.717769701633173e+18,0.31165191650499996,-1.9825447769499998,9.62192360685
1.717769701833173e+18,0.30639784241,-2.0158729706000003,9.607231659049999
1.717769702033173e+18,0.305252723695,-2.0427570648,9.60568986505
1.717769702233173e+18,0.3096386032049999,-2.0969818039499994,9.594074020450002
1.717769702433173e+18,0.30523775482499993,-2.1085153198,9.59968734745
1.717769702633173e+18,0.305970873147619,-2.1455739701904766,9.581760341095237
1.717769702833173e+18,0.318724708555,-2.15432006835,9.573514274550002
1.717769703033173e+18,0.304758750915,-2.1758527908499996,9.585990829350001
1.717769703233173e+18,0.3099978561350001,-2.16305440515,9.593213310250002
1.717769703433173e+18,0.296802795405,-2.1224288864,9.59831769565
1.717769703633173e+18,0.29610674284000005,-2.0720361785500003,9.604993812599998
1.717769703833173e+18,0.3154914321849999,-2.0274962997,9.6028083573
1.717769704033173e+18,0.30791718292000003,-1.9860025864000002,9.61009071345
1.717769704233173e+18,0.287716690065,-1.9207383041000003,9.617403007499998
1.717769704433173e+18,0.31268476866,-1.8908379823500003,9.59957508065
1.717769704633173e+18,0.30573172760500006,-1.8989286574999997,9.618353530850001
1.717769704833173e+18,0.29969178772499994,-1.94571386715,9.6169689102
1.717769705033173e+18,0.31353050994,-1.9989207229,9.613967651500001
1.717769705233173e+18,0.30177994536999997,-2.04727017985,9.608983017000002
1.717769705433173e+18,0.307303459165,-2.0735330657,9.596843261699998
1.717769705633173e+18,0.30475126647999995,-2.113462532,9.593116012600001
1.717769705833173e+18,0.31207104491499993,-2.123364441,9.587629920900001
1.717769706033173e+18,0.31121033478500004,-2.1668639832500007,9.584299346999998
1.717769706233173e+18,0.31570848082999997,-2.1716839599499997,9.5759991075
1.717769706433173e+18,0.30068721770999995,-2.1730985184000002,9.58287730405
1.717769706633173e+18,0.30068721772,-2.1477637023500002,9.594470695500002
1.717769706833173e+18,0.31383737181999993,-2.1287981414,9.594710197450002
1.717769707033173e+18,0.312812004085,-2.08368944545,9.590870681750001
1.717769707233173e+18,0.29875623321000006,-2.01638191225,9.59961998735
1.717769707433173e+18,0.311607009885,-1.9841314773,9.61994771575
1.717769707633173e+18,0.30400282288499997,-1.9154617766999997,9.62230531315
1.717769707833173e+18,0.29762608336499996,-1.8876196746000002,9.6037214585
1.717769708033173e+18,0.30231882475999994,-1.8917735366,9.633202652
1.717769708233173e+18,0.30130094145499997,-1.8974691924500005,9.61867536155
1.717769708433173e+18,0.30903984833,-1.9308048705999998,9.614222122200001
1.717769708633173e+18,0.299624427805,-1.9703451462500001,9.619730667099999
1.717769708833173e+18,0.31668145752,-2.01212326815,9.610143104499999
1.717769709033173e+18,0.3101400604299999,-2.0594922637999997,9.604125618
1.717769709233173e+18,0.318110984795,-2.0952005081000005,9.589927642650002
1.717769709433173e+18,0.30834379577500004,-2.1182450867,9.584703506450001
1.717769709633173e+18,0.31577904838571424,-2.157983878000001,9.582793905999997
1.717769709833173e+18,0.303441490175,-2.1464165038000003,9.584299346949999
1.717769710033173e+18,0.29818741607,-2.168458168,9.5892315902
1.717769710233173e+18,0.30076954650500004,-2.1576656113999997,9.59644658665
1.717769710433173e+18,0.314376251215,-2.11400889585,9.598587135299997
1.717769710633173e+18,0.30524523924999997,-2.0635413435500007,9.59679835505
1.717769710833173e+18,0.28645182038,-1.9902387772,9.6047393417
1.717769711033173e+18,0.31108309937499995,-1.9694470138500002,9.621811340349998
1.717769711233173e+18,0.29960197449000003,-1.8997145233000001,9.61724583435
1.717769711433173e+18,0.29538075256,-1.8741252365,9.5983775712
1.717769711633173e+18,0.2999163207899999,-1.9226992263499998,9.61545705405
1.717769711833173e+18,0.303448974615,-1.9701879730500003,9.618682846049998
1.717769712033173e+18,0.30528266144,-1.9899468840499999,9.6072615966
1.717769712233173e+18,0.300619857785,-2.03569175725,9.6063035888
1.717769712433173e+18,0.31330597687000006,-2.0650008087499994,9.59749440765
1.717769712633173e+18,0.308021965025,-2.1124521331499997,9.5968582306
1.717769712833173e+18,0.312213249205,-2.1459674378000004,9.582046531649997
1.717769713033173e+18,0.308373733515,-2.1511017607999996,9.58396254735
1.717769713233173e+18,0.30642778014,-2.15867601025,9.586118064949998
1.717769713433173e+18,0.29972172546500003,-2.1620065842500003,9.596229538
1.717769713633173e+18,0.31057415771,-2.1343141708,9.593654892100002
1.717769713833173e+18,0.29794791412000005,-2.08350981905,9.5930261993
1.717769714033173e+18,0.304893470755,-2.0216808928499996,9.6099335403
1.717769714233173e+18,0.30385313415000004,-1.9564615173999993,9.6233231965
1.717769714433173e+18,0.29803772735000006,-1.9207158509,9.61126576995
1.717769714633173e+18,0.30227391814999993,-1.88714815525,9.602217086749999
1.717769714833173e+18,0.302311340325,-1.9195333098999998,9.618982223449999
1.717769715033173e+18,0.301764976515,-1.9209104461999995,9.613855384900003
1.717769715233173e+18,0.30249096681000004,-1.9645970992499997,9.618555610649999
1.717769715433173e+18,0.29834458922999996,-2.01230289455,9.60732147215
1.717769715633173e+18,0.30561197662499995,-2.0655920792,9.60295804595
1.717769715833173e+18,0.31766940308499997,-2.0915630722000005,9.5890369949
1.717769716033173e+18,0.29535081482,-2.12305009475,9.592913932900002
1.717769716233173e+18,0.31634465789499994,-2.1267174683,9.588078987150002
1.717769716433173e+18,0.31009515381,-2.1633313293999996,9.57990598295
1.717769716633173e+18,0.31254292078095236,-2.178106318857143,9.569970572285714
1.717769716833173e+18,0.30796208953999993,-2.18199002835,9.5921729737
1.717769717033173e+18,0.309967918395,-2.15902777865,9.59377464295
1.717769717233173e+18,0.304197418215,-2.0752020950500003,9.60145367435
1.717769717433173e+18,0.3005001068,-2.0364252319500005,9.5992981568
1.717769717633173e+18,0.30661489105,-2.0000209350499993,9.61471609505
1.717769717833173e+18,0.30056746673499996,-1.95052635945,9.60997096245
1.717769718033173e+18,0.30254335785,-1.8966234512999995,9.58983782955
1.717769718233173e+18,0.29637618255,-1.9320023803999997,9.609551834100001
1.717769718433173e+18,0.30473629759500004,-1.96996343995,9.613945198149999
1.717769718633173e+18,0.303763320935,-2.0285815429500005,9.615472023
1.717769718833173e+18,0.31118039703000006,-2.07616010275,9.597486923199998
1.717769719033173e+18,0.31001282500500005,-2.1070558547499996,9.599313125599998
1.717769719233173e+18,0.30468390654999994,-2.13694869225,9.58177709195
1.717769719433173e+18,0.306787033085,-2.1361927642499996,9.583977516149998
1.717769719633173e+18,0.29699739075,-2.1542901306000006,9.57912760155
1.717769719833173e+18,0.313620323185,-2.16306937405,9.582196220350001
1.717769720033173e+18,0.29520112610500004,-2.16505274975,9.5827350998
1.717769720233173e+18,0.31046937562,-2.1479059067000006,9.590122238100001
1.717769720433173e+18,0.28960276794500006,-2.0928728484500003,9.600585479800001
1.717769720633173e+18,0.29065807343000005,-2.0362755433,9.604088195700001
1.717769720833173e+18,0.30793215179000005,-2.0080592193999993,9.61232107545
1.717769721033173e+18,0.30565688324,-1.96311518095,9.61053229515
1.717769721233173e+18,0.291825645455,-1.8962417449000004,9.58932888785
1.717769721433173e+18,0.297947914125,-1.9404672775499996,9.61408740245
1.717769721633173e+18,0.2916984100350001,-1.9552116165000002,9.6190046768
1.717769721833173e+18,0.301398239135,-1.9973040847999997,9.608331870999999
1.717769722033173e+18,0.29963191223,-2.04872964485,9.601244110149999
1.717769722233173e+18,0.30489347077999995,-2.0824320601500004,9.602980499249998
1.717769722433173e+18,0.31237790679,-2.1056487809,9.5892016526
1.717769722633173e+18,0.30460157775,-2.1198542403999996,9.5911550904
1.717769722833173e+18,0.31675630188500004,-2.13331125645,9.58280245965
1.717769723033173e+18,0.296428573605,-2.1627550277,9.58358832545
1.717769723233173e+18,0.30898745726500004,-2.161834442,9.5977713318
1.717769723433173e+18,0.299085548405,-2.1146750108,9.59893890375
1.717769723633173e+18,0.3045024980857143,-2.074072658047619,9.603115931857142
1.717769723833173e+18,0.30335916137,-2.0265981674,9.600645355249998
1.717769724033173e+18,0.30734836577999997,-1.9696341247500002,9.615763916050001
1.717769724233173e+18,0.29090505982,-1.9114126968500003,9.600263649050001
1.717769724433173e+18,0.30014833831,-1.9113004303500003,9.604941421349999
1.717769724633173e+18,0.30095665741000005,-1.9632349318999995,9.615569320549998
1.717769724833173e+18,0.31112052155000003,-2.0077224197999994,9.604619590750001
1.717769725033173e+18,0.29759614562500003,-2.0452044754500003,9.606041633500002
1.717769725233173e+18,0.3037333831799999,-2.06672971335,9.602359291099999
1.717769725433173e+18,0.30940658568999996,-2.1231548767,9.592666946400001
1.717769725633173e+18,0.3132685546799999,-2.1377195892000005,9.581530105500002
1.717769725833173e+18,0.3058963852,-2.1441187821000005,9.581118461650002
1.717769726033173e+18,0.31312635040500003,-2.14540610505,9.5829596328
1.717769726233173e+18,0.2967803421,-2.1579724732499996,9.6146562195
1.717769726433173e+18,0.4327575759995,-1.9304306487999998,9.587330543399998
1.717769726633173e+18,0.07134164431950003,-2.3395598603499996,9.585811203350001
1.717769726833173e+18,-0.26970165245675004,-2.9584329071749997,9.840020072600002
1.717769727033173e+18,0.3093766479425,-1.184823646455,12.582003089999999
1.717769727233173e+18,0.347891555859,5.03754187774,9.767638092050001
1.717769727433173e+18,-0.8585097199000001,3.0801897124499997,6.8926416781499995
1.717769727633173e+18,0.7411537628564999,0.2235002288595001,4.39458391585
1.717769727833173e+18,0.53670142367,-1.7775535584100002,10.028777549700001
1.717769728033173e+18,2.7394083710499997,-3.05743702715,11.780173004
1.717769728233173e+18,2.3013143921,-3.64631245425,11.114986267350002
1.717769728433173e+18,0.977609550465,-2.270358764694,10.2953956145
1.717769728633173e+18,1.0676847381774999,-0.1989213409165,10.553279343499998
1.717769728833173e+18,-0.58889039611,1.7130751419169996,5.34304907235
1.717769729033173e+18,-0.14616355122849994,0.42641825869000005,7.625674827849998
1.717769729233173e+18,0.0019983444114999582,-2.96007948295,10.74820399505
1.717769729433173e+18,1.5526986465695,-3.8030365448499994,12.752303949
1.717769729633173e+18,0.9052649917724999,-3.14972012335,9.86253325645
1.717769729833173e+18,-0.17522561642900006,-1.2874427490725,10.819994705300001
1.717769730033173e+18,0.019594253569699977,-0.778980102528,9.76224181385
1.717769730233173e+18,-0.253325706481,1.9621122665549997,4.66664316545
1.717769730433173e+18,-0.40292461398199997,0.1622026978099999,8.048238602000001
1.717769730633173e+18,0.5856678118270953,-3.314179556809524,10.990181514619048
1.717769730833173e+18,2.11433072659,-3.942179695200001,13.161388252499998
1.717769731033173e+18,1.0916573867635,-2.0638257523099997,9.7089750825
1.717769731233173e+18,0.73991134643835,-1.65846869664755,10.258063247949998
1.717769731433173e+18,1.1656709747304999,-0.7420518951509998,9.47182324235
1.717769731633173e+18,-0.32561038971985,2.050892646775,5.246948913599999
1.717769731833173e+18,-0.02996019743099988,-0.35083293907499996,8.15869390905
1.717769732033173e+18,0.88070107265,-3.18108739475,11.110735107
1.717769732233173e+18,2.56359148407,-3.2632290802,12.150989388000003
1.717769732433173e+18,0.710991485634,-2.6859171066,10.645854332750002
1.717769732633173e+18,1.25797652428,-2.2500385207,9.564188666849999
1.717769732833173e+18,1.1217223663595002,-1.265663040095,9.890075981200003
1.717769733033173e+18,0.28435617826349996,-0.012618759105000033,8.583764968850002
1.717769733233173e+18,-0.6685023422990001,2.769959838905,5.59990743255
1.717769733433173e+18,0.8687035217250001,-1.7280140762530003,9.115878433850002
1.717769733633173e+18,0.78241545861,-2.99680561065,10.940554001799999
1.717769733833173e+18,1.629623680125,-3.8085525741499993,12.390888015
1.717769734033173e+18,0.998917739875,-2.50932932275,10.64170795495
1.717769734233173e+18,1.084951331995,-2.0163444901000003,9.081869156
1.717769734433173e+18,1.4440695418999998,-0.8759858780349999,9.67479366305
1.717769734633173e+18,1.368963226245,-0.3665128326299999,9.33561399075
1.717769734833173e+18,-0.9823696517625,2.0787871399349998,5.609644683849999
1.717769735033173e+18,0.45818968969249996,-0.48773824305,8.2930545042
1.717769735233173e+18,0.6356007613289999,-3.4000071487500003,11.180811881500002
1.717769735433173e+18,0.8005427627716001,-3.1504461135449997,11.81355358905
1.717769735633173e+18,0.7837327194515,-3.282538925144999,9.1391625143
1.717769735833173e+18,0.36583923339685004,-1.5079566879794999,9.60822708905
1.717769736033173e+18,-0.5428162078185002,-2.2033730621,9.685414077699999
1.717769736233173e+18,-0.975528877249,-2.29729524995,9.53419853195
1.717769736433173e+18,-0.03370989989775,-1.687919952375,9.703159675600002
1.717769736633173e+18,1.641935577535,-1.9092272415100002,9.546106269800001
1.717769736833173e+18,0.700782714901,-2.37303025825,9.50785331735
1.717769737033173e+18,-0.026921516431999987,-1.8925893401999996,9.751651336799998
1.717769737233173e+18,0.15877482605999998,-2.2298754502,9.560753311200001
1.717769737433173e+18,0.33263079071,-1.7588649215500003,9.62355521395
1.717769737633173e+18,0.333221348352381,-1.7334666661428568,9.640972922190477
1.717769737833173e+18,0.24257805634000001,-1.7170568619500002,9.65354534905
1.717769738033173e+18,0.317287696843,-1.3926664352000002,9.735687034600002
1.717769738233173e+18,0.6525530090349999,-1.3683195648,9.65162933345
1.717769738433173e+18,0.38044136810699997,-1.5243925095,9.68770431525
1.717769738633173e+18,0.382492103585,-1.4920672302,9.710224983249999
1.717769738833173e+18,0.5258789291400001,-1.5602878646999998,9.6772410737
1.717769739033173e+18,0.35635645294999996,-1.6074173584,9.6256957626
1.717769739233173e+18,0.29061316681,-1.8363138656499998,9.661157020650002
1.717769739433173e+18,0.44183619690000003,-1.8528769225500004,9.65686843865
1.717769739633173e+18,0.43967319488,-1.9329304503,9.64211661535
1.717769739833173e+18,0.34439632415500004,-1.9511026611499998,9.611452880799998
1.717769740033173e+18,0.320027000435,-1.9276015320500002,9.6052033768
1.717769740233173e+18,0.33686698151499994,-2.10701843265,9.631436324949998
1.717769740433173e+18,0.40481069184,-1.9593729630000003,9.642288757349998
1.717769740633173e+18,0.37112324524500007,-1.92853708645,9.632154831
1.717769740833173e+18,0.33337923431500005,-1.8593659285999997,9.645379829449999
1.717769741033173e+18,0.37993242644,-1.7175658035,9.648680465750001
1.717769741233173e+18,0.31695089722,-1.68491869365,9.652445137
1.717769741433173e+18,0.44766657257000003,-1.6516354065,9.675145431549998
1.717769741633173e+18,0.42720412445499995,-1.5764317932999998,9.6436958313
1.717769741833173e+18,0.33255594635,-1.6310681763000001,9.662691329949999
1.717769742033173e+18,0.36753820038499996,-1.617109703,9.66459986115
1.717769742233173e+18,0.372709945675,-1.7337321854500005,9.6514571915
1.717769742433173e+18,0.38791831969499996,-1.8059495087,9.650693779
1.717769742633173e+18,0.389160736085,-1.84421743005,9.635762328950001
1.717769742833173e+18,0.378128677365,-1.9366951218000004,9.6340334244
1.717769743033173e+18,0.38574034882,-1.95322075655,9.6415253449
1.717769743233173e+18,0.355937324535,-1.9829189987000002,9.5911775437
1.717769743433173e+18,0.341080718995,-1.9851418762000002,9.613032096949999
1.717769743633173e+18,0.34748739624,-2.0081565169999998,9.60608654015
1.717769743833173e+18,0.34001044464499997,-2.04694834905,9.636159004349999
1.717769744033173e+18,0.33501084137500003,-1.9697987824999998,9.625650856
1.717769744233173e+18,0.352898643495,-1.8666108626499995,9.63922013855
1.717769744433173e+18,0.32436797331,-1.7966089326499997,9.6410687944
1.717769744633173e+18,0.3266849408809524,-1.7354340036666664,9.66200775142857
1.717769744833173e+18,0.35991156005499997,-1.6838035125999997,9.661897979699999
1.717769745033173e+18,0.32695010375,-1.6180901642500003,9.622327766450002
1.717769745233173e+18,0.34825829314999995,-1.6262706527500002,9.68887937165
1.717769745433173e+18,0.3392470321600001,-1.6521518326000002,9.6403577729
1.717769745633173e+18,0.35101256562,-1.7513505477,9.653627677950002
1.717769745833173e+18,0.33865576172,-1.7776433716499997,9.6557532577
1.717769746033173e+18,0.349193847655,-1.87327949535,9.64366589365
1.717769746233173e+18,0.35561549377499996,-1.9087632066000002,9.631121978749999
1.717769746433173e+18,0.34132022095000003,-1.9464548263,9.62186373125
1.717769746633173e+18,0.34771941375000004,-1.9963535614000005,9.620224639849999
1.717769746833173e+18,0.34944831849,-2.0172052001500003,9.598400024399998
1.717769747033173e+18,0.36208204651,-2.0248093872000004,9.612874923750002
1.717769747233173e+18,0.34822087099,-2.0348834380499996,9.604439964400003
1.717769747433173e+18,0.323634498595,-2.06781495665,9.600263649
1.717769747633173e+18,0.316561706545,-2.0356992416499997,9.6092374878
1.717769747833173e+18,0.32418834687000003,-2.0549267578500006,9.634377708499999
1.717769748033173e+18,0.31253507996,-1.8867290266999999,9.630800148099997
1.717769748233173e+18,0.342240806575,-1.8364336166999997,9.646547401450002
1.717769748433173e+18,0.33915721893499995,-1.7544940108999998,9.6459486465
1.717769748633173e+18,0.31750474548499996,-1.6431405716499998,9.62182630915
1.717769748833173e+18,0.38078565216500004,-1.6613277511499998,9.65540148925
1.717769749033173e+18,0.32989148712,-1.70931795505,9.6441748352
1.717769749233173e+18,0.34813854216999995,-1.77886333465,9.65167424015
1.717769749433173e+18,0.371138214115,-1.8722391586,9.650514152549999
1.717769749633173e+18,0.35580260468,-1.9054101789999998,9.6313465118
1.717769749833173e+18,0.35714231873999996,-1.9378327561500002,9.629437980599999
1.717769750033173e+18,0.35444792175,-1.9874919891500002,9.618151451100001
1.717769750233173e+18,0.336777168275,-1.9732790452,9.61622046665
1.717769750433173e+18,0.35619179535000006,-1.9971693649,9.613937713599999
1.717769750633173e+18,0.32168106079500003,-2.0125199432500005,9.6309872589
1.717769750833173e+18,0.33820669555,-1.9208879929000002,9.63955693825
1.717769751033173e+18,0.33835638428,-1.8759589234,9.6436359558
1.717769751233173e+18,0.335549720765,-1.8028509521500002,9.636480835
1.717769751433173e+18,0.33799713134,-1.7151558151,9.6535453491
1.717769751633173e+18,0.32659085083,-1.665631302,9.653739944300003
1.717769751833173e+18,0.3436710466571428,-1.6554930986190475,9.646383100333333
1.717769752033173e+18,0.325415794375,-1.7149836731,9.649735771100001
1.717769752233173e+18,0.33587903594999996,-1.7359700317999998,9.65101560975
1.717769752433173e+18,0.338633308405,-1.77525583655,9.64948130045
1.717769752633173e+18,0.34088612365500004,-1.8647322693000004,9.6468093568
1.717769752833173e+18,0.352359764105,-1.90609874735,9.627424667350002
1.717769753033173e+18,0.33887281037,-1.9293304366499995,9.623824653549999
1.717769753233173e+18,0.34088612365,-1.9628532256500002,9.624326110950001
1.717769753433173e+18,0.340863670345,-1.9896325379500002,9.685526344349999
1.717769753633173e+18,0.27681186676,-1.96342204275,9.617051239050001
1.717769753833173e+18,0.310881019595,-1.65646286775,9.661171989400001
1.717769754033173e+18,0.43840084074999996,-1.6320112151500001,9.611303192200001
1.717769754233173e+18,0.351409240714,-1.7823361129499997,9.661523757949999
1.717769754433173e+18,0.21552930450049995,-2.1312904585999997,9.572825706349999
1.717769754633173e+18,0.13614937591220003,-2.0869077531,9.64076941675
1.717769754833173e+18,0.43488315581250003,-2.14354996495,9.6154046632
1.717769755033173e+18,-0.12995974731700002,-2.1109477614999994,9.5010424805
1.717769755233173e+18,-0.14769037627549997,-2.0756885834000003,9.6905259477
1.717769755433173e+18,0.22733974456574998,-2.24540565505,9.47183821115
1.717769755633173e+18,0.4526362381200001,-2.11549829855,9.567579116800001
1.717769755833173e+18,0.1892664184575,-2.1524714125999997,9.621893669150001
1.717769756033173e+18,0.122617515556,-2.0584893493500003,9.557302986200002
1.717769756233173e+18,-0.070847671507,-2.14309341425,9.610524810850002
1.717769756433173e+18,0.0778007125795,-1.9905381547,9.589074417249998
1.717769756633173e+18,0.19340531158500002,-2.08398133835,9.610928970250002
1.717769756833173e+18,0.1059945831311,-2.1149444503,9.623360618549999
1.717769757033173e+18,0.23954685974099998,-2.0065847854500003,9.5416679993
1.717769757233173e+18,0.2775977325405,-1.9445088728999997,9.59212806715
1.717769757433173e+18,0.11753558349530002,-2.22428457645,9.610015869200002
1.717769757633173e+18,0.2956801300085,-2.12400061795,9.581567527649998
1.717769757833173e+18,0.005905220031550001,-2.3127057037,9.553044342
1.717769758033173e+18,0.040341110228,-2.2808369750999997,9.592981292649998
1.717769758233173e+18,0.0988993377725,-2.18177297975,9.5866195221
1.717769758433173e+18,0.06426885223155,-2.0767064667499997,9.594590446549999
1.717769758633173e+18,0.2651511154149999,-1.9326310730000003,9.618286171000001
1.717769758833173e+18,0.1668316432547619,-1.9182538278571428,9.641350708095239
1.717769759033173e+18,0.22594015504000003,-1.7863402862999997,9.657055549699999
1.717769759233173e+18,0.21527483366500003,-1.7485513686999998,9.651000640900001
1.717769759433173e+18,0.17256115722,-1.6834816818499998,9.598452415499999
1.717769759633173e+18,0.23061044311999995,-1.79561350245,9.700652389449997
1.717769759833173e+18,0.1748813324,-1.7402885513000002,9.650955734300002
1.717769760033173e+18,0.21039498137999998,-1.7928741989000003,9.653081314049999
1.717769760233173e+18,0.21380788421499997,-1.8118921508999999,9.664038528399997
1.717769760433173e+18,0.19941531372000004,-1.7922978972999999,9.652924140849999
1.717769760633173e+18,0.21623284149500002,-1.8414182509999997,9.640020973149998
1.717769760833173e+18,0.20423529052999995,-1.8281258926,9.637970237800001
1.717769761033173e+18,0.21544697571000002,-1.86477717595,9.6508808899
1.717769761233173e+18,0.212303512575,-1.8525550919,9.644391883900001
1.717769761433173e+18,0.20428019714499998,-1.8564245453000001,9.61979802705
1.717769761633173e+18,0.24079676056499996,-1.8833310929,9.6565765457
1.717769761833173e+18,0.15186669159000002,-1.8815722504,9.64701143645
1.717769762033173e+18,0.15501015472000002,-1.8216294022,9.629303260850003
1.717769762233173e+18,0.20304526520000002,-1.82632962805,9.62021715555
1.717769762433173e+18,0.10516381073450001,-1.8964438248,9.646457588150001
1.717769762633173e+18,0.190666007995,-1.9366502149999998,9.6267884904
1.717769762833173e+18,0.1765428772,-1.94224108875,9.62190863805
1.717769763033173e+18,0.14546749877499998,-1.9620374223000006,9.62681094355
1.717769763233173e+18,0.18592087555000003,-2.0023785324000003,9.64129332725
1.717769763433173e+18,0.214249465935,-1.972485695,9.639369827349999
1.717769763633173e+18,0.180861396785,-1.9258127519000001,9.624326110850001
1.717769763833173e+18,0.20405566406500003,-1.8477575682,9.648223915200001
1.717769764033173e+18,0.209092689525,-1.7999395064,9.6457540512
1.717769764233173e+18,0.24930656432500004,-1.7747244414,9.719894874550002
1.717769764433173e+18,0.138454582212,-1.7193096769500003,9.534220985400001
1.717769764633173e+18,0.27175238799,-1.5101870498999999,9.725800094650001
1.717769764833173e+18,0.31131511689,-1.7739909668499998,9.65529670715
1.717769765033173e+18,0.24849076081,-1.8244884568000004,9.65281187435
1.717769765233173e+18,0.38480479430000003,-1.6619265060000004,9.64908462535
1.717769765433173e+18,0.34611774443499993,-1.8599422301500002,9.64907714085
1.717769765633173e+18,0.29656329345499993,-1.8059195709499996,9.657010643000001
1.717769765833173e+18,0.2925487845285714,-1.8035708835714286,9.63321049290476
1.717769766033173e+18,0.27584637451500005,-1.8645451583,9.6629158629
1.717769766233173e+18,0.40855290985000003,-1.76628199765,9.63972908015
1.717769766433173e+18,0.06898404693429999,-1.84670974735,9.639841346699999
1.717769766633173e+18,0.23817720795500003,-1.8278190308500002,9.642610587999998
1.717769766833173e+18,0.207955055239,-1.8234032134500004,9.66455495445
1.717769767033173e+18,0.154119506841,-1.7921107864499999,9.645522033599999
1.717769767233173e+18,0.16915573883950002,-1.8138755264500002,9.63024629975
1.717769767433173e+18,0.245541893005,-1.7512831878,9.657706695649999
1.717769767633173e+18,0.285456390385,-1.7833839340999997,9.677675170799999
1.717769767833173e+18,0.2589989089955,-1.8440976792500003,9.625089523350002
1.717769768033173e+18,0.2319726104665,-1.7807943192,9.659764915450001
1.717769768233173e+18,0.23159838866500002,-1.7742229842999997,9.65022974385
1.717769768433173e+18,0.09535919952905,-1.8311870269,9.626421752850002
1.717769768633173e+18,0.26325755310399995,-1.8106796722500005,9.66522855375
1.717769768833173e+18,0.23962170409650002,-1.807072174,9.629183509799999
1.717769769033173e+18,0.15821349334650003,-1.9010991440000002,9.64859813695
1.717769769233173e+18,0.39071749878,-1.8303936767000004,9.6567711411
1.717769769433173e+18,0.15175442504849998,-1.8851498107500007,9.624445861900002
1.717769769633173e+18,0.21599333953299998,-1.7977540512500003,9.6408292922
1.717769769833173e+18,0.319622840877,-1.8279612351,9.630440895149999
1.717769770033173e+18,-0.19666852569999999,-1.8985319824000002,9.647243454000002
1.717769770233173e+18,0.23230941010635,-1.7735493850499995,9.65579067985
1.717769770433173e+18,0.07810757445340001,-1.83692010495,9.613136879
1.717769770633173e+18,-0.09343569945775002,-1.94289971925,9.58710601045
1.717769770833173e+18,0.398171997075,-1.9695218582500005,9.669135429350002
1.717769771033173e+18,0.20240160369700005,-2.10438391105,9.641615158099999
1.717769771233173e+18,0.290418571478,-1.9123482512499996,9.651853866549999
1.717769771433173e+18,0.271438041685,-1.88082380685,9.6399610978
1.717769771633173e+18,0.1339264984115,-1.7868941345499998,9.647527862599999
1.717769771833173e+18,0.33081207275,-1.6467331008,9.67807933045
1.717769772033173e+18,0.27948381043,-1.6158523178,9.690585823099997
1.717769772233173e+18,0.14385086060345,-1.5127616958499999,9.7111455689
1.717769772433173e+18,0.259328224183,-1.3648617553500002,9.70280790715
1.717769772633173e+18,0.164245948791,-1.3428200912000001,9.5613296127
1.717769772833173e+18,0.052832633973349995,-1.27560237115,9.726077019100002
1.717769773033173e+18,0.4972588021380953,-1.6213640702380954,9.677197592666666
1.717769773233173e+18,0.25606501006750004,-1.8149532850499999,9.66724186705
1.717769773433173e+18,0.18949843598149999,-1.9856208800999995,9.65421894835
1.717769773633173e+18,0.3068618774400001,-2.0100875015499997,9.636331146149999
1.717769773833173e+18,0.22775887298499997,-2.0208725737999997,9.619895324749999
1.717769774033173e+18,0.413245651245,-1.9890262984,9.600128929250001
1.717769774233173e+18,0.149823440556,-2.0188891983499997,9.588101440500001
1.717769774433173e+18,0.2072964248665,-2.0840037918500003,9.583910156249999
1.717769774633173e+18,0.50282686615,-2.0145631943500004,9.61102626805
1.717769774833173e+18,0.21156255341500008,-2.1383632508,9.59566820515
1.717769775033173e+18,0.0976344680747,-2.1688623276000003,9.5700115585
1.717769775233173e+18,0.42079744721,-2.0709733887999997,9.620247093149999
1.717769775433173e+18,0.307632774365,-2.04756955715,9.615075347849999
1.717769775633173e+18,0.03315605163525,-2.0421957321499997,9.612762657149998
1.717769775833173e+18,0.34417179108499996,-1.8889893264000002,9.6229639435
1.717769776033173e+18,0.45143124389,-1.7771269454000003,9.646719543449999
1.717769776233173e+18,-0.004348457337149998,-1.8503471832499998,9.604574684149998
1.717769776433173e+18,0.2891611862115,-1.7423991623,9.616639595
1.717769776633173e+18,0.501397338885,-1.788757759,9.656022697450002
1.717769776833173e+18,-0.030379325864999994,-2.0447179869500003,9.6171560211
1.717769777033173e+18,0.24574397277450002,-1.9813397828,9.608144760150001
1.717769777233173e+18,0.4947212219299999,-1.9572324141500002,9.616669532749999
1.717769777433173e+18,0.13635894012024,-2.10543173205,9.5918062362
1.717769777633173e+18,0.15316898345785002,-2.1231997834000005,9.586597068749999
1.717769777833173e+18,0.4961732025199999,-2.04346060185,9.59625199135
1.717769778033173e+18,0.169208129884,-2.145233963050001,9.5766876755
1.717769778233173e+18,0.14196478271949997,-2.18513349155,9.579494338900002
1.717769778433173e+18,0.43032513428499997,-2.0729567641999997,9.604589652950002
1.717769778633173e+18,0.25973986816399997,-2.07160208125,9.603556800849999
1.717769778833173e+18,0.06529421997255,-2.07333847045,9.59805574025
1.717769779033173e+18,0.368331550595,-1.9251316681500001,9.6262570954
1.717769779233173e+18,0.396600265495,-1.8663414229000002,9.63026875305
1.717769779433173e+18,0.04025129699734999,-1.90915988165,9.63117436985
1.717769779633173e+18,0.276811866754,-1.8041831818000003,9.602553886350002
1.717769779833173e+18,0.47095065307499995,-1.7421970825,9.640552368299998
1.717769780033173e+18,0.06858594621642856,-1.9090301512857144,9.616416843857142
1.717769780233173e+18,0.28140731048,-1.9250643082,9.624318626500001
1.717769780433173e+18,0.473173530575,-1.90455695335,9.630321144149999
1.717769780633173e+18,0.1041309585535,-2.0676278456999997,9.59536134345
1.717769780833173e+18,0.271011428835,-2.05413340755,9.60270357525
1.717769781033173e+18,0.35111734772000003,-2.0699105987,9.592973808299998
1.717769781233173e+18,0.27140061952,-2.07564367675,9.5955035477
1.717769781433173e+18,0.19826271056,-2.1324580307499996,9.5781770782
1.717769781633173e+18,0.300791999825,-2.1313653030500004,9.5931160127
1.717769781833173e+18,0.356872879025,-2.07958797455,9.6059218826
1.717769782033173e+18,0.14255605315400005,-2.0897668075999998,9.599822067249999
1.717769782233173e+18,0.24349864196999998,-2.0023336257999995,9.603182578950001
1.717769782433173e+18,0.425550064095,-1.8705401917000004,9.629625091600001
1.717769782633173e+18,0.13847703552249999,-1.9310443724499997,9.625987655749999
1.717769782833173e+18,0.224817489625,-1.8429750137000003,9.6266163483
1.717769783033173e+18,0.44920836639500006,-1.69755990595,9.6147385483
1.717769783233173e+18,0.15065421294849998,-1.8440752258,9.6223352508
1.717769783433173e+18,0.21612057495050002,-1.8463280410499998,9.6363685684
1.717769783633173e+18,0.44039918518,-1.85242785645,9.627761466900001
1.717769783833173e+18,0.19815792846400002,-1.9769314499,9.61335392765
1.717769784033173e+18,0.17995578002999998,-2.0340376968499996,9.604230400000002
1.717769784233173e+18,0.43498045349,-1.9818038178000001,9.5997247696
1.717769784433173e+18,0.2561697921725,-2.07642205815,9.59628192905
1.717769784633173e+18,0.1329984283455,-2.1218525847500005,9.583026992799999
1.717769784833173e+18,0.39472167206500003,-2.0788994064999997,9.579434463599998
1.717769785033173e+18,0.29562773895500005,-2.1018766250499996,9.576148796000002
1.717769785233173e+18,0.15691120147849996,-2.1557645645,9.586829086349999
1.717769785433173e+18,0.325797500615,-2.0808827819499998,9.5984973221
1.717769785633173e+18,0.35714980317,-2.0355645218499996,9.609596740750003
1.717769785833173e+18,0.13263169098049998,-2.0308942337,9.5947251662
1.717769786033173e+18,0.25254732513,-1.9431167678999999,9.606745170550003
1.717769786233173e+18,0.40276744079500004,-1.8404602431999997,9.63124921415
1.717769786433173e+18,0.14208453369250001,-1.8538948059999996,9.624318626400001
1.717769786633173e+18,0.196758338925,-1.8205516434500002,9.588026596149998
1.717769786833173e+18,0.4177213439800001,-1.8003511505000003,9.621953544650001
1.717769787033173e+18,0.18064434814549998,-1.93383606725,9.63344963845
1.717769787233173e+18,0.20532302856761908,-1.9610077775238093,9.603614894333335
1.717769787433173e+18,0.405147491465,-1.94838581075,9.604410026500002
1.717769787633173e+18,0.26750122832500006,-2.0316726150499997,9.595600845200002
1.717769787833173e+18,0.189161636365,-2.09885291295,9.590451553400001
1.717769788033173e+18,0.36080220794000006,-2.07455843355,9.58395506295
1.717769788233173e+18,0.31287936400999994,-2.07010519405,9.58632014475
1.717769788433173e+18,0.20036583710999997,-2.1209993592,9.55760236365
1.717769788633173e+18,0.38584513092,-2.1016745453,9.59264449305
1.717769788833173e+18,0.36754568482,-2.08201293175,9.5966187286
1.717769789033173e+18,0.13150154113850002,-2.09529780575,9.58886485295
1.717769789233173e+18,0.33171020507499993,-1.99109948735,9.59905117045
1.717769789433173e+18,0.45119174193999995,-1.8457218017000003,9.632663772599999
1.717769789633173e+18,0.07691006469504999,-1.9232381057,9.613892807000003
1.717769789833173e+18,0.271782325745,-1.80602435305,9.633823860100001
1.717769790033173e+18,0.463368919385,-1.6976197815000003,9.650559059149998
1.717769790233173e+18,0.028395950321,-1.77708203895,9.606617935150002
1.717769790433173e+18,0.32019165802099997,-1.6927474135499998,9.6460609131
1.717769790633173e+18,0.36530783843650005,-1.7165554046,9.695136360099998
1.717769790833173e+18,0.026719436645600003,-1.7852999497,9.552198600750001
1.717769791033173e+18,0.3251089324965,-1.7945581970499997,9.654106681799998
1.717769791233173e+18,0.29038114929000003,-1.8087861099000002,9.68478538515
1.717769791433173e+18,0.23601420594000003,-1.9772233430000004,9.631204308049998
1.717769791633173e+18,0.25242008972999996,-1.84904489135,9.57593174745
1.717769791833173e+18,0.29999864960000006,-1.8602116698499997,9.60451480865
1.717769792033173e+18,0.22055884551499996,-2.0465516738000002,9.634976463350002
1.717769792233173e+18,0.26902805329,-2.0213815153500003,9.59184365845
1.717769792433173e+18,0.29123437499500004,-2.0613633727000003,9.588924728399999
1.717769792633173e+18,0.21106109619,-2.05712718195,9.607411285400001
1.717769792833173e+18,0.286683837885,-2.0088899917000003,9.6108541259
1.717769793033173e+18,0.270330345155,-1.9436032562499999,9.61817390445
1.717769793233173e+18,0.253026329045,-1.9129769440500002,9.6114229431
1.717769793433173e+18,0.24950115967000003,-1.8597251816499998,9.632124893050001
1.717769793633173e+18,0.26430537415,-1.826157486,9.6358222046
1.717769793833173e+18,0.25916356658499995,-1.7545239488000004,9.632117408750002
1.717769794033173e+18,0.257052955625,-1.7512906722000001,9.61666204825
1.717769794233173e+18,0.23912773133000007,-1.8207686920500001,9.649578598000002
1.717769794433173e+18,0.2455536542619048,-1.800890742714286,9.658778751904762
1.717769794633173e+18,0.257734039295,-1.8189350051999997,9.6370421677
1.717769794833173e+18,0.35595977783,-1.7161886673999998,9.675182854000003
1.717769795033173e+18,0.2866613845784,-1.5080689545500001,9.792134650699998
1.717769795233173e+18,0.438213729805,-4.036416229235,9.46162195625
1.717769795433173e+18,-0.7434514847282001,-0.21538710021700003,12.364505379500002
1.717769795633173e+18,-0.2922447739035,4.031491470194999,10.99082695715
1.717769795833173e+18,-0.6136713638635001,3.0793888779,6.43136091634
1.717769796033173e+18,0.1863474883745,1.4534699936100002,3.0244306640084995
1.717769796233173e+18,0.008607101398999954,-1.6796646194849998,11.32452053855
1.717769796433173e+18,1.86840712738,-4.953940727200001,11.9309544525
1.717769796633173e+18,1.818044357315,-3.80110556025,12.021433800150001
1.717769796833173e+18,0.5776412886644999,-2.11624674227,9.865803955249998
1.717769797033173e+18,0.75020993044875,-0.8167839890094998,9.39740549465
1.717769797233173e+18,0.26307792668999996,1.5322511673449997,6.7007482222500006
1.717769797433173e+18,-0.65565905,2.5082515640799996,5.7653883133
1.717769797633173e+18,0.5147869949674999,-2.8417430649149997,10.55159534565
1.717769797833173e+18,1.626150901764,-4.43907140365,12.776912773499998
1.717769798033173e+18,0.6023773499420001,-3.8148020782499996,11.618756171599998
1.717769798233173e+18,0.6513480148237,-2.6149871062999996,9.5233386156
1.717769798433173e+18,1.39366186518,-1.0206974487355,9.09557315815
1.717769798633173e+18,-1.13140722662,2.65779808038,5.435347137499999
1.717769798833173e+18,-0.7200326843525,0.4865257645749999,7.085852394150001
1.717769799033173e+18,1.1926748198724,-3.9541922151500004,11.3844858392
1.717769799233173e+18,1.8208659895810002,-4.49988244615,12.541340148500002
1.717769799433173e+18,0.22444326780249998,-3.04502783205,10.391765213149998
1.717769799633173e+18,0.9046587524399999,-1.91455616008,9.70901250405
1.717769799833173e+18,0.7876246261850001,-1.648499427775,9.925544723200002
1.717769800033173e+18,-0.680978897082,1.1572135620200001,7.191749679549998
1.717769800233173e+18,-2.1240829467499998,2.3887775116000003,5.246155563349999
1.717769800433173e+18,0.37166212467,-2.7819648742799994,10.445114272800001
1.717769800633173e+18,0.606156990055,-5.0567244872499995,12.000335175
1.717769800833173e+18,0.28591294100174997,-4.678236557050001,12.1091588739
1.717769801033173e+18,-1.6090190277500003,-2.6051375885,8.683450172499999
1.717769801233173e+18,-0.7688461761731501,-1.4497726822405002,9.92532019095
1.717769801433173e+18,0.18340610496,-1.025053390495,9.58520496345
1.717769801633173e+18,-1.1305133710190478,2.6334095110333333,5.433572256952381
1.717769801833173e+18,-0.9458605728350002,0.28461813361000005,7.22406747445
1.717769802033173e+18,0.88104535681275,-3.81305072015,11.720200218
1.717769802233173e+18,2.25937161257,-4.6222080689,13.076439903499997
1.717769802433173e+18,0.49740813447950005,-2.9505443115,9.44901068145
1.717769802633173e+18,0.34465827941500005,-2.3013143920999997,9.2593999782
1.717769802833173e+18,0.9034911804225001,-1.156337882995,10.08077941165
1.717769803033173e+18,1.0995759200920001,-0.35984420014550006,8.941827873049998
1.717769803233173e+18,-0.389168220514,1.537617507888,7.365455955549999
1.717769803433173e+18,-0.682625473004,0.06173162845600002,7.600796562249999
1.717769803633173e+18,0.342532699607,-2.3534734269,10.609854194849998
1.717769803833173e+18,1.11033105471,-2.94183242805,10.194685044100002
1.717769804033173e+18,1.4502367172619999,-3.5319951781500003,10.380328995149998
1.717769804233173e+18,0.20574714655500004,-2.736399627645,9.70244865455
1.717769804433173e+18,1.374973228525,-2.44592118065,9.563193237650001
1.717769804633173e+18,1.2147688750650003,-2.60173217005,9.360686851500002
1.717769804833173e+18,0.3002531204235,-1.7512382813300005,9.615434601
1.717769805033173e+18,-1.31285989385,-2.8209438171500003,9.37960750585
1.717769805233173e+18,-0.916955680805,-2.1375175095500003,9.557183235150001
1.717769805433173e+18,-2.4327036667,-2.7776837770000005,9.1039257889
1.717769805633173e+18,-3.2030991210500006,-2.7460096435000003,8.727196701100002
1.717769805833173e+18,-2.7842551117,-3.4229619139999996,8.8295688171
1.717769806033173e+18,-4.687075675849999,-3.9052589722,7.941765014799998
1.717769806233173e+18,-3.469245666450001,-4.112158721899999,8.2360979461
1.717769806433173e+18,-3.9932834243500004,-3.4798062057499997,8.105374786399999
1.717769806633173e+18,-4.75019192505,-4.34151177985,7.232592247050002
1.717769806833173e+18,-5.2612666398000005,-5.2538795013,6.732100524950001
1.717769807033173e+18,-5.04118679805,-5.4316273727499995,6.555954322850001
1.717769807233173e+18,-5.2597023926,-5.7356601333,6.114874054
1.717769807433173e+18,-5.36648284145,-5.58954897315,5.862813217199999
1.717769807633173e+18,-5.232234512450001,-5.8332571793,6.1232566223
1.717769807833173e+18,-5.718483352800001,-5.870305137600001,6.4964680251999996
1.717769808033173e+18,-6.5328124465999995,-2.7420054702100005,7.73966278835
1.717769808233173e+18,-6.172474273750001,4.627394783,7.7783872604
1.717769808433173e+18,-2.0033066024999995,8.212005546700002,9.07089697235
1.717769808633173e+18,-1.9754345627000003,8.243118347400001,6.156524940600001
1.717769808833173e+18,-0.8603751264019047,11.121266064761905,1.0331087821174285
1.717769809033173e+18,-0.18369799801849998,9.05999214905,-2.851921897825
1.717769809233173e+18,0.26917025756949997,9.365514312699998,-3.2282617950000003
1.717769809433173e+18,0.007619155880000017,7.6963428729,-4.711542297485001
1.717769809633173e+18,-2.336446334755,7.345554840049999,-6.622588256600001
1.717769809833173e+18,-0.12770693211500003,7.532201706,-6.4319147644
1.717769810033173e+18,-1.7348174287,7.1231398544,-6.37248085795
1.717769810233173e+18,-1.434713996915,6.16693579105,-6.955742958099999
1.717769810433173e+18,-2.3528447343499996,5.24477094275,-8.567598587050002
1.717769810633173e+18,-1.8875074080499998,3.7986431807500005,-8.6906277466
1.717769810833173e+18,-1.4500720595999999,3.4239947662499994,-9.038863586349999
1.717769811033173e+18,-1.2690360259444442,2.8158111572222224,-9.520335693222224
1.717769811233173e+18,,,
