Timestamps,Gyro_X,Gyro_Y,Gyro_Z
1.717769647234421e+18,0.10333186584584764,-0.12853569710251903,0.6314890340800714
1.717769647434421e+18,0.29236567914500006,0.32303283747230005,2.0103376448
1.717769647634421e+18,0.10890326427885003,0.6341454435832249,3.506901538400001
1.717769647834421e+18,0.005455999207205,0.0012765081465499982,0.29732622266437
1.717769648034421e+18,0.0032006387655499997,0.024748807965999996,1.2289122036454054
1.717769648234421e+18,0.0008860437839390001,0.002254932365425001,0.1011745444195595
1.717769648434421e+18,0.00231343840425,-0.00014288717067499992,0.00011494002975199998
1.717769648634421e+18,-0.0022293066606215006,-0.000404570787111,0.0001626637880292
1.717769648834421e+18,-0.0030348997098049997,-0.00024198488678000004,9.717906076650004e-05
1.717769649034421e+18,-0.004231596525604999,0.0025650430441399997,0.00022932454150499993
1.717769649234421e+18,0.0004395464812950001,-0.00092428475042,0.000707910742521
1.717769649434421e+18,-0.005094221944555,0.06557456386520003,2.1739786695249004
1.717769649634421e+18,0.005160595144155002,-0.002118518507799999,2.290897050505
1.717769649834421e+18,0.0197519441996025,0.05867755945258498,2.81739616095
1.717769650034421e+18,-0.101365320973444,-0.19336014020383002,0.22482881364802002
1.717769650234421e+18,-0.34469714016100006,-0.2201104609362,-0.3881099863895
1.717769650434421e+18,1.25096414832,-0.04045151020950003,-2.5747130692499995
1.717769650634421e+18,0.31028046310999996,1.0893474623050001,-3.1693863392499995
1.717769650834421e+18,1.484494533761,-3.06163724661,-4.1422681808999995
1.717769651034421e+18,2.7042259918599996,-2.73660073295,-0.10896474720150004
1.717769651234421e+18,-0.5307201258379999,-0.586209266334,0.9286600314060001
1.717769651434421e+18,0.5075198524144999,-0.572696701076,0.11838069053895003
1.717769651634421e+18,-2.4170069634999996,-0.9180848830715,-0.5818624142334999
1.717769651834421e+18,-2.2010090978275003,-1.5882128178950001,-0.270438513918
1.717769652034421e+18,0.01290481233675,-0.659282917165,0.1932333425101
1.717769652234421e+18,0.1083850318783,-0.1634566089155,-0.139537797678
1.717769652434421e+18,-0.038430681829,0.033234147259049995,0.0542589317548
1.717769652634421e+18,-0.45742695034,0.2394963920125,0.25303102285550005
1.717769652834421e+18,-0.5052730396449998,0.6907118748184999,0.2674067467736
1.717769653034421e+18,-0.74308126566,1.59366554035,0.0384332480435
1.717769653234421e+18,-0.21539373807849999,0.27101062861499997,0.22700461670750002
1.717769653434421e+18,-0.21400128603000002,0.38776763639999995,-0.030552834059349998
1.717769653634421e+18,-0.217051875595,0.3013952114415,-0.1805661283465
1.717769653834421e+18,-0.13589756390059998,0.13333858687115002,0.4164545525698
1.717769654034421e+18,0.04877510605366667,0.47134174265523804,-0.16649957742380952
1.717769654234421e+18,-0.0189702035051,0.331059108484,-0.33769482820999996
1.717769654434421e+18,0.0435921589865,0.42257478535,-0.18294432104115
1.717769654634421e+18,-0.0598746647055,0.12307006805864998,-0.25785224996500006
1.717769654834421e+18,-0.41375255734000005,0.0145103935115,-0.41222056150999997
1.717769655034421e+18,-0.09292310073274998,0.1729242254085,-0.18211046378280002
1.717769655234421e+18,-0.14789761053549996,0.26669573760570003,0.1590675616683
1.717769655434421e+18,0.055472017361000006,0.2499344330345,0.24223461551100006
1.717769655634421e+18,0.11968010027250002,0.07817583867879999,-0.066661853108
1.717769655834421e+18,-0.01305360554195,-0.13163499714392,-0.10974775106299998
1.717769656034421e+18,-0.030672704708499997,-0.0900929816095,-0.0607150388351
1.717769656234421e+18,0.10146418039655,-0.10446426100299999,0.0206295255632
1.717769656434421e+18,0.00035510873600000105,0.3761498518229999,0.11251596445
1.717769656634421e+18,-0.06362035176415001,-0.048081971410445,0.2840496300402
1.717769656834421e+18,-0.022622816614450002,-0.179886380484,0.14631979502849998
1.717769657034421e+18,-0.058953735534850005,0.017692765527015,-0.0171422432529
1.717769657234421e+18,-0.09347694367500001,0.037336942116800005,-0.16725326181
1.717769657434421e+18,0.064774596868,0.12499250895915,-0.1436995547385
1.717769657634421e+18,1.32738854594,0.355673684185,0.176993796884
1.717769657834421e+18,1.3573773786549999,-0.36491016875535,-0.34694649447399994
1.717769658034421e+18,-0.45691256858999996,-0.3730101970885,0.15654854058149997
1.717769658234421e+18,-0.65131582764,-0.12148491456049999,0.13218140868925
1.717769658434421e+18,-0.1533165474441,0.13871277370399998,0.21121582202919997
1.717769658634421e+18,-0.73205332903,0.17650664211960998,0.2004640156238
1.717769658834421e+18,-0.647929710155,-0.2406369115735,-0.171080902965
1.717769659034421e+18,-0.21474507517239996,-0.058839632959785004,0.0769688323055
1.717769659234421e+18,0.34566897827250004,-0.30845592803545,-0.229944942983
1.717769659434421e+18,0.67062370479,0.3109383523528,-0.01322490740695
1.717769659634421e+18,0.5761836040724999,0.11155872102049999,-0.126791367308
1.717769659834421e+18,-1.022315632535,0.16492214547149997,-0.002678832464000001
1.717769660034421e+18,-0.59191991687,-0.1798819501953,0.02957677254705
1.717769660234421e+18,-0.181302031644,-0.134672194724,-0.024129303552600005
1.717769660434421e+18,0.19460659036699998,0.02876344598915001,-0.0036234642440000006
1.717769660634421e+18,0.54876317531,0.11577443534055001,-0.1539848503245
1.717769660834421e+18,0.7212032556500001,0.22168062439850003,0.036863176439499996
1.717769661034421e+18,-0.4028253955685714,-0.04274687418904764,-0.18583883503057147
1.717769661234421e+18,-0.7585099905749999,0.026494924138350008,0.1787685661101
1.717769661434421e+18,-0.37361078933499997,-0.3961194191104999,-0.081016828491
1.717769661634421e+18,0.027920308526500005,-0.022431228490000007,0.11223188987320001
1.717769661834421e+18,0.5712509289299998,0.026613863005849996,-0.16293808090599998
1.717769662034421e+18,0.570600800215,0.23016286249799997,-0.10016433151270002
1.717769662234421e+18,0.35683925896999996,0.23051707350809,-0.17584679647999998
1.717769662434421e+18,-0.8881496206099998,-0.14243972787113,-0.03519242701474999
1.717769662634421e+18,-0.68237597347,-0.40760032312000005,0.072043235929
1.717769662834421e+18,-0.1441138486863,0.08496608501760002,0.03061840932605
1.717769663034421e+18,0.19849214591000003,0.4038419166655,0.16112578897799998
1.717769663234421e+18,0.43162185625499994,0.03434699977365,-0.0674771187935
1.717769663434421e+18,0.6436357125700002,0.09416674151769999,-0.06631551554835
1.717769663634421e+18,0.15448814007149997,0.17084566642399995,0.13092335649050002
1.717769663834421e+18,-0.943617349955,-0.321864793628,-0.20346143664834998
1.717769664034421e+18,-0.41311763450449995,-0.57334543765,-0.18562661399895003
1.717769664234421e+18,-0.028109974038499998,0.14768250918280001,0.11159680298600001
1.717769664434421e+18,-0.03215625891549999,0.39346870407,0.1894779471235
1.717769664634421e+18,0.8026129230800001,0.07002896512385001,0.004906724768499996
1.717769664834421e+18,0.559464311605,0.20236507374850002,0.04696959571652
1.717769665034421e+18,0.1453345397545,-0.041289501634999996,0.1018783169551
1.717769665234421e+18,-0.700656846895,-0.2274461783495,-0.1333369078927
1.717769665434421e+18,-0.52602213399,-0.374981948726,-0.14960253735549997
1.717769665634421e+18,-0.21978113884849998,0.1111426010655,0.024897061004500006
1.717769665834421e+18,0.23629549764499996,0.31809586808500007,0.08701278678850001
1.717769666034421e+18,-0.0660393496984,0.12949184703185002,0.10781806653170001
1.717769666234421e+18,-0.08396014020060001,-0.043878079713249994,-0.019993725973999996
1.717769666434421e+18,-0.02734918602545,-0.16279012514299998,-0.16243379371035
1.717769666634421e+18,-0.0023167739852999994,0.09998938581149999,0.2104101739825
1.717769666834421e+18,0.0612261845201,-0.007507654464749996,-0.0443180449829
1.717769667034421e+18,0.072949258983,-0.090942864027,-0.037637150565
1.717769667234421e+18,0.06874402114499999,-0.013400623865800002,0.012813341176300003
1.717769667434421e+18,0.06366861493875,0.139287545538,0.019269874552800003
1.717769667634421e+18,0.0384868172925,0.0021161715732000005,-0.005856881399399999
1.717769667834421e+18,0.053704891353999994,-0.03700951133,-0.014198982395350002
1.717769668034421e+18,0.046348967367619044,0.006265869220190476,0.01236195389109048
1.717769668234421e+18,0.02460577536855,0.009899078752950001,0.008911060606635
1.717769668434421e+18,-0.056920281191,-0.015113932021999996,-0.008935846833145
1.717769668634421e+18,-0.092906497601,-0.0025769768983499993,0.0057295447307050005
1.717769668834421e+18,-0.1063422154615,-0.009482080093585001,-0.0008885889672500001
1.717769669034421e+18,-0.06541421394850001,0.0017754993455799998,0.0034199469111599995
1.717769669234421e+18,-0.04651311962,0.00133681731545,0.000884288505755
1.717769669434421e+18,-0.0364660629075,-0.0031494380963149994,-0.004290537202600001
1.717769669634421e+18,-0.019961536444,0.004588685120555,0.00455919561506
1.717769669834421e+18,-0.01187726002564,0.0013617487360324998,-0.00020638435385499982
1.717769670034421e+18,-0.005740997777300001,-0.000921524170645,0.00149156187263
1.717769670234421e+18,-0.011765684815799999,0.0034209579811549998,0.001651145837805
1.717769670434421e+18,-0.009129322896567,-0.0021802368167899997,-0.003650017713902401
1.717769670634421e+18,0.0278574931445,0.0007252482899999999,-0.005906050696204999
1.717769670834421e+18,0.042610336934,0.004122131131415001,-0.0010189923166650002
1.717769671034421e+18,0.038616363796999995,0.00158538603027,-0.00026652146646000016
1.717769671234421e+18,0.0494015198185,0.006975570237355,0.005172435592875
1.717769671434421e+18,0.0333318462595,0.0002092720617349997,0.00162291753785
1.717769671634421e+18,0.017678726580399998,-0.00855072061515,-0.001987986461569
1.717769671834421e+18,-0.0241725343285,-0.004759099847149,-0.0028801381001999997
1.717769672034421e+18,-0.03736011837600001,0.00766573628619,0.0018002692232600502
1.717769672234421e+18,-0.031476264819,-0.008064520400004998,-0.00554027251123
1.717769672434421e+18,-0.031940185652,0.0043777041428035,0.0028732035977890005
1.717769672634421e+18,-0.033366220164,0.0005481190454299998,0.0015047448132549997
1.717769672834421e+18,-0.021424068649500003,-0.0016166169080785004,0.0015469340666150002
1.717769673034421e+18,-0.016063368878500003,0.0010698962374699503,0.00039699031765500013
1.717769673234421e+18,-0.01153007717905,-0.002166810270625,0.0018194462813941
1.717769673434421e+18,-0.013083067536805002,-0.00210542815046,0.001025745723984
1.717769673634421e+18,-0.007433825125900001,0.0023528303136495,-0.0005043872516655001
1.717769673834421e+18,0.02408259152425,0.0028581370601235,-0.007987486547749997
1.717769674034421e+18,0.04220780702250001,0.000787414913095,-0.00112078496892
1.717769674234421e+18,0.0453329931945,0.0013427290539500003,0.00042062995851499996
1.717769674434421e+18,0.044044734538,0.0066550273565485,0.0051926505169
1.717769674634421e+18,0.032548487651499994,0.001864778145531,0.002393635248898
1.717769674834421e+18,0.008579854586628568,-0.0037811691736952383,0.0006317038690857143
1.717769675034421e+18,-0.029279309885,0.0005039287380660002,-0.003621458615585
1.717769675234421e+18,-0.036092106159000006,-0.00025809067301500006,-0.00043596694597095004
1.717769675434421e+18,-0.035025683698,-0.004381736897350001,-0.00146904254226
1.717769675634421e+18,-0.02984014181499999,0.0001811278168849999,0.00157760327574
1.717769675834421e+18,-0.0203848655325,0.00262335484739,0.002423985506245
1.717769676034421e+18,-0.0152799758538,-0.0007845427489635001,0.000560169761632175
1.717769676234421e+18,-0.0148153636605,0.001949191000295,0.0005509562818950002
1.717769676434421e+18,-0.004197157127715,0.0012144104985644,0.002241597790285
1.717769676634421e+18,-0.004169752760175001,-0.0015073790214250003,-0.0019923949556000004
1.717769676834421e+18,0.006608829042909501,0.0010769235610285,-0.00522330812653
1.717769677034421e+18,0.033448977302,0.003109732561225,0.0008754775583349999
1.717769677234421e+18,0.03542631445500001,0.00146910004839,-0.0005649400802340001
1.717769677434421e+18,0.036310733667500004,-0.0008142806443650001,-0.000152434632855
1.717769677634421e+18,0.0373555316595,-0.00238051287024955,0.0008664334211499999
1.717769677834421e+18,0.032387524099,0.004735664936199999,0.0022369122948
1.717769678034421e+18,0.0013824600433700002,0.00141995110902,0.0011596000258199998
1.717769678234421e+18,-0.02940128783175,-0.0034041783248934996,-0.0010275893699600001
1.717769678434421e+18,-0.031761458795999994,-0.0016362878348649998,-0.00392473353434
1.717769678634421e+18,-0.0261415961195,0.00142830912381,0.00034133067381699996
1.717769678834421e+18,-0.024718562699000003,-0.00033549664072999994,0.00028948663528500005
1.717769679034421e+18,-0.025681134221,-0.0018103434646975004,-0.0007902708137284999
1.717769679234421e+18,-0.0164772552437,0.0004707247950650001,0.0018611188396000001
1.717769679434421e+18,-0.0103954272345,-0.00119254763116,0.00015807028402
1.717769679634421e+18,-0.008719395008449999,-0.0005075337947887502,0.0011584977518705
1.717769679834421e+18,-0.00265360125345,0.000314625600085,-0.00062195368238
1.717769680034421e+18,0.025450232531499993,0.0021723888526035,-0.0020522017730349998
1.717769680234421e+18,0.036524549498499995,-0.0006099200138019999,0.00010402774633499988
1.717769680434421e+18,0.035456087161500005,-0.0011003118034795,-0.0005516994018650002
1.717769680634421e+18,0.03620827356300001,0.00059498903578,0.002226818082155
1.717769680834421e+18,0.031693455203500004,0.0017965783131650003,0.001492512985739
1.717769681034421e+18,0.019249016651285,0.00011201294819499982,-0.00018344136627000007
1.717769681234421e+18,-0.0038014541088669993,0.000210111425236,-0.0015661607002099998
1.717769681434421e+18,-0.026508065406,0.00194002274065,-0.000538092605704
1.717769681634421e+18,-0.03276432999400001,-0.0020246741828300004,-0.0029450711823435
1.717769681834421e+18,-0.030120064549047625,-0.0019529712514819045,0.0002044942534690476
1.717769682034421e+18,-0.0200667390605,0.001487637875955,0.0013064751953839999
1.717769682234421e+18,-0.0197777613995,-0.0005203427921299999,-0.00015968880914
1.717769682434421e+18,-0.0205176845177,-0.00144903558542,-0.00046425248293000004
1.717769682634421e+18,-0.01290763784225,0.000413005013255,0.0005102484952555
1.717769682834421e+18,-0.007231350662300001,0.00010597408113500008,0.0014310769082949999
1.717769683034421e+18,-0.004643497540629999,0.00014377407200199995,0.000273578186154
1.717769683234421e+18,-0.005601398888845001,0.00046084841917499997,-0.0001111153716875
1.717769683434421e+18,0.0154453818101,0.00274562092103,-0.00048714518485810004
1.717769683634421e+18,0.031879888754,0.002435433992405,-0.0009059016097885
1.717769683834421e+18,0.0326396507215,0.0013313600037299998,0.0002696298440515
1.717769684034421e+18,0.0314497600305,-0.0019932928957399998,-0.0019012671577565
1.717769684234421e+18,0.031019385902499995,0.0018215460705199998,0.001766317756844
1.717769684434421e+18,0.015564964850415003,0.00219067091511,0.0012394287330799998
1.717769684634421e+18,-0.015409563502304999,-0.00036084965433500003,-0.0008607267839549999
1.717769684834421e+18,-0.024981595063,-0.002951866135065,0.0006305400486149999
1.717769685034421e+18,-0.021009955648499997,0.0018007937121210505,-0.0005344037082949999
1.717769685234421e+18,-0.0215861982665,-0.00116417267417,0.0004085773311000001
1.717769685434421e+18,-0.0250052898195,-0.0026835394208155,-0.0011555901436350001
1.717769685634421e+18,-0.017272762534350002,-0.000673766975475,-0.00032708036002850017
1.717769685834421e+18,-0.00924467875175,0.0010682215302167497,0.0011419388261640002
1.717769686034421e+18,-0.00490828400965,-0.0028052554989500002,5.340077915949996e-05
1.717769686234421e+18,-0.009012182679687498,0.0006215680245399999,0.00227996788889
1.717769686434421e+18,7.508235343000004e-05,0.0027246868994649995,-0.0004979024756750001
1.717769686634421e+18,0.01553295208165,-0.0017417338211024997,-0.0041163487767
1.717769686834421e+18,0.0269263369955,0.0003049372054015,-0.000155590934445
1.717769687034421e+18,0.029618620034,-0.0015707900747350002,-8.483633051999971e-05
1.717769687234421e+18,0.03309599934100001,0.0031893390055545,0.0009761994442710001
1.717769687434421e+18,0.0258885364045,0.0012065274466825,0.0012741760510749998
1.717769687634421e+18,0.018652230058899995,-0.0019204226555300003,-0.0006036256032649998
1.717769687834421e+18,0.0034632448688249997,0.000460196868555,-0.0004739960830050001
1.717769688034421e+18,-0.013341172738250001,0.001417992066184,-0.001106675625543
1.717769688234421e+18,-0.031450684740499994,-0.001972280445146025,-0.00096690566285
1.717769688434421e+18,-0.023586594127500003,-0.00224362535519,-0.0012020706927044998
1.717769688634421e+18,-0.0186321279965,0.0016511048016315,0.000364639356825
1.717769688834421e+18,-0.019275241708095237,-0.0006963956290678572,-0.00025112133807814283
1.717769689034421e+18,-0.018657669611799998,0.00021014998198000002,-7.305618824999979e-06
1.717769689234421e+18,-0.00976671208595,0.0019386140221535001,0.00197201920965
1.717769689434421e+18,-0.004649059387165,-0.00150731096788,0.0006962319923099999
1.717769689634421e+18,-0.0053477995393,-0.00197803374607925,-0.0008819441806399998
1.717769689834421e+18,0.00493321506595,0.001764530205415,-0.0013838067418249999
1.717769690034421e+18,0.019818127015500002,0.004177799646395,-0.0020010835229445
1.717769690234421e+18,0.029508348647499995,-0.0019334611773499997,0.0009563863016699998
1.717769690434421e+18,0.026242097794000004,-0.00087983701942,0.0006848708291200003
1.717769690634421e+18,0.024924709275999997,-0.0003434674028022498,0.0001799560064599999
1.717769690834421e+18,0.024774511436999998,0.0013219559041349998,0.0013948335224065003
1.717769691034421e+18,0.008538184652200001,-0.00046395141110499997,-0.0012217106370305
1.717769691234421e+18,-0.007145839801470001,2.554228698999995e-05,0.000511829457505
1.717769691434421e+18,-0.0156199740709,-0.00025300118153700004,-0.0014742738306265002
1.717769691634421e+18,-0.02429123791,-0.0013459111622399998,-0.000549513791348
1.717769691834421e+18,-0.025897214887500002,-0.00061846425519,-0.0015700043441449999
1.717769692034421e+18,-0.018305245226500004,-0.001178723067314,-0.0007036511597700001
1.717769692234421e+18,-0.01590456958,0.0014395563862,0.001246713839625
1.717769692434421e+18,-0.0101994979835,-0.0010845681477399999,-0.00019151221200049996
1.717769692634421e+18,-0.011526629142649998,0.0003415252489035,0.0009001405153149997
1.717769692834421e+18,-0.00328164351792,0.0006616060563850001,0.00237570924659
1.717769693034421e+18,-0.0005959591653150002,-0.00168990988165,-0.0010176786919600003
1.717769693234421e+18,0.004740700870895001,0.002344539016525,-0.0018015999463029998
1.717769693434421e+18,0.01657376931975,-0.00040688293516999994,-0.0007201334753199999
1.717769693634421e+18,0.028965628521000004,0.0034052186296149997,0.000499282774395
1.717769693834421e+18,0.0270062416785,0.0026650746468764998,0.0008283547678574
1.717769694034421e+18,0.026048329937000004,-0.00347424058685,0.0017336459889249999
1.717769694234421e+18,0.025956258457500003,0.00023478781214500004,-0.0029597973046770003
1.717769694434421e+18,0.014548879896260001,0.00268678171859,0.0017816423088950002
1.717769694634421e+18,-0.01398591068665,0.0015452069637934996,-0.0007161326415429999
1.717769694834421e+18,-0.02319939164475,-0.001131515798745,-0.0022327354031350007
1.717769695034421e+18,-0.020715315127,-0.0008242279756500001,-0.00018462522280099995
1.717769695234421e+18,-0.021149092632499998,0.0008266333840249999,-0.00064741232197
1.717769695434421e+18,-0.0201179205189,-0.00143968009502,-0.0012585416450915001
1.717769695634421e+18,-0.0189078086525,-0.0016649058670549998,1.1459289720000088e-05
1.717769695834421e+18,-0.00966389111414286,0.0007299133853409522,0.0027892541173904764
1.717769696034421e+18,-0.005949588451649999,-0.002317085390577,0.0002842173708524
1.717769696234421e+18,-0.007031266793519999,-0.0012641273497710002,0.001013908046285
1.717769696434421e+18,-0.00485897621867,-0.00018768059382499993,-8.876341158999992e-05
1.717769696634421e+18,0.0038378935481899997,0.003415919395025,-0.0004906598245695001
1.717769696834421e+18,0.01618159117605,0.0006040841486185001,-0.002062640617006
1.717769697034421e+18,0.0237780318605,0.0006940059539655,0.0017396875093000004
1.717769697234421e+18,0.026471844687,-0.000799163186455,-0.0013495582127935
1.717769697434421e+18,0.027683497499999998,0.00287875710635,0.0011713468382959999
1.717769697634421e+18,0.022585215885000003,0.000464533333488,0.00042972282968499996
1.717769697834421e+18,0.015279788268099998,-0.0023222529389674996,-0.0010975629004055
1.717769698034421e+18,-0.0088468359031,0.0037480627303999995,0.0005532358160715
1.717769698234421e+18,-0.021068078419,0.00010624644065000002,-0.00081828341641
1.717769698434421e+18,-0.025849662720500006,-0.001726775435955,0.0017509591634850001
1.717769698634421e+18,-0.019829717883,-0.0009381127719000001,-0.0016783277168950003
1.717769698834421e+18,-0.0158293146175,0.0010188722924415001,0.00039973106463
1.717769699034421e+18,-0.013198242195849998,-0.00124639178394,-0.0008187726634199999
1.717769699234421e+18,-0.011975203081434,-0.0008723534672550003,0.0017405061517465005
1.717769699434421e+18,-0.006444351311600001,-0.0007699862849700001,0.000687890566805
1.717769699634421e+18,-0.003973746360920001,0.0021362437632399998,-0.0004454843932664999
1.717769699834421e+18,0.010278913192799999,0.0018420248436120002,-0.0028829031566144996
1.717769700034421e+18,0.019738990348049996,0.000539680069875,0.00022013548281500008
1.717769700234421e+18,0.029845087882000004,0.001205248199634,0.0011051110340449999
1.717769700434421e+18,0.0260114733135,0.000823550098,0.0014709632203710001
1.717769700634421e+18,0.024350587325,-0.0018368506717050003,0.00032827705425100015
1.717769700834421e+18,0.025671670679000003,-0.0022087504855330003,0.0006654662287050001
1.717769701034421e+18,0.01784343884845,0.0031737147191000003,0.0010325960945149998
1.717769701234421e+18,-0.012048340874055,0.00123561241787,-0.0007081967051490001
1.717769701434421e+18,-0.0241377460305,-0.0016466973233099994,-0.00114650320614
1.717769701634421e+18,-0.020780709805999997,-0.0018775021074709998,-0.0006863247021135
1.717769701834421e+18,-0.020304377889500003,0.0007223084220450002,-0.00133862989612
1.717769702034421e+18,-0.0193770186045,0.00040804538291999996,-0.00209977375196
1.717769702234421e+18,-0.0205617732365,-0.0007152725012004999,0.0002764174685
1.717769702434421e+18,-0.012851069076350002,0.00022695680380000008,0.0006017192747549999
1.717769702634421e+18,-0.007654558900428573,-0.00037927446625238097,4.406421508142857e-05
1.717769702834421e+18,-0.0061430164818649996,-0.001997242891165,0.0003287734549835
1.717769703034421e+18,-0.0035640193848650004,0.000652843294785,5.8527056530500025e-05
1.717769703234421e+18,0.013531573373349998,0.0026359818700700003,-0.0006298852473435
1.717769703434421e+18,0.023406957555500003,0.00063606537881,-0.000587079665315
1.717769703634421e+18,0.025885839761500003,-0.0008552208455949999,0.0018958856658649998
1.717769703834421e+18,0.025454036145999996,-0.0006583386712245,-0.00102598783235
1.717769704034421e+18,0.026877771131,0.00349218011252,0.001197426149218
1.717769704234421e+18,0.019468250405,-0.000687334034586,-0.00043248722500000003
1.717769704434421e+18,0.004301292012035,-0.001290039729865,-0.0007760796870500002
1.717769704634421e+18,-0.014188112457900002,0.0015373607339765,-0.0006941375381335002
1.717769704834421e+18,-0.021719780377,-0.0017897982324850004,-0.001925738193696
1.717769705034421e+18,-0.0256776274185,-0.0017199884867199998,8.047617739000008e-05
1.717769705234421e+18,-0.02201796528,-0.0022229283233104495,-0.0008557575317899999
1.717769705434421e+18,-0.0171110066585,0.0011437035455995,0.00045881939298
1.717769705634421e+18,-0.015260504418499998,-0.000277557480188,0.0010683717774300004
1.717769705834421e+18,-0.013162656850500002,-0.001197921595355,0.0017187457370499998
1.717769706034421e+18,-0.0062052486815500005,-0.00026804466615500003,-8.898161466994993e-05
1.717769706234421e+18,-0.0015622551727969998,0.001704337235395,0.0006286892661910001
1.717769706434421e+18,0.0027018866211550004,0.00015913678803750002,-0.0017755870241849998
1.717769706634421e+18,0.012114456790400002,0.0017090431094399997,1.1234218310000009e-05
1.717769706834421e+18,0.024738660547000003,-0.00180399823585,-0.0013386441337
1.717769707034421e+18,0.028049107827499996,0.002201909775637,0.0013514663790786501
1.717769707234421e+18,0.025142496638,-0.0002636480757014999,-3.37700622720001e-05
1.717769707434421e+18,0.022622063197000004,-0.001363389979814,-0.0005559542101249999
1.717769707634421e+18,0.024407619703499996,0.002037680876635,4.568613029999955e-06
1.717769707834421e+18,0.01080377373754,0.0009124431059834998,0.000167031298038
1.717769708034421e+18,-0.007303897547609998,-0.0005040649673549998,0.0005420791683904502
1.717769708234421e+18,-0.010211274965599999,-0.0014514267211950002,-0.0015797078638789999
1.717769708434421e+18,-0.01730007589865,-0.0001169339113349997,-0.0012934007536667001
1.717769708634421e+18,-0.0218021776525,-0.0014416122808699999,-0.00065669708127
1.717769708834421e+18,-0.0237095773685,-0.0008166348124299996,-0.0013587549503099997
1.717769709034421e+18,-0.0171940076169,-0.0009051676549350001,3.8334753475000053e-05
1.717769709234421e+18,-0.0160406544805,0.0016436781937475004,0.000119843384955
1.717769709434421e+18,-0.013777347049550002,-0.00014653529798149995,-0.00016700878041400004
1.717769709634421e+18,-0.012883488199095235,0.0001517811048285714,0.0012497174709238095
1.717769709834421e+18,-0.004458006952005,0.00227476542351,0.0017674595815990002
1.717769710034421e+18,0.0016152169555299998,0.0005085708776775001,-0.0019537464104249997
1.717769710234421e+18,0.01561795696695,-0.0011385168181500002,0.00034724928553750016
1.717769710434421e+18,0.027731641382500005,-0.0007749832875489999,-0.00141088207307
1.717769710634421e+18,0.029835830163,0.003965398686499999,0.0012312172635574998
1.717769710834421e+18,0.024157914146999998,0.0002573397651011,-0.00010064149111499999
1.717769711034421e+18,0.0223716215705,-0.001693365612315,-0.0012073699458149997
1.717769711234421e+18,0.0197283220025,0.00289845067304,0.0011031160204935
1.717769711434421e+18,-0.0053384379367865,0.0011749764933865,0.00046760304247099994
1.717769711634421e+18,-0.018754647950950006,-0.00196949885572,-0.00020011382581954992
1.717769711834421e+18,-0.0198535488915,-0.0017960549507100004,-0.0025600780485487
1.717769712034421e+18,-0.0195159342595,0.00010145833355499998,-0.001247684058153
1.717769712234421e+18,-0.02045990387,-0.00085110140204,-0.000224590308875
1.717769712434421e+18,-0.020799922618000004,-0.0010102680011050001,-0.001257212134075
1.717769712634421e+18,-0.014100009156149998,-0.0006712741683599998,-0.00022184867996500002
1.717769712834421e+18,-0.010924499178900001,0.0010881312599149999,0.0015752250444107999
1.717769713034421e+18,-0.00637636131165,-0.000603766142765,-0.00013463755891600002
1.717769713234421e+18,-0.005150281442590001,0.002682143036435,0.000177342642535
1.717769713434421e+18,0.012071043398380003,0.00015683222450500002,-0.0019250703365224996
1.717769713634421e+18,0.023648015316999997,0.00029749353712099993,0.0013869584595795
1.717769713834421e+18,0.027093648258999996,-0.000908152153755,0.0010068402421445004
1.717769714034421e+18,0.027908310293999993,0.00028873323175315004,-0.0005413768255545
1.717769714234421e+18,0.0286114508285,5.507291939000009e-05,0.00023411127324999997
1.717769714434421e+18,0.0190926518295,0.0013222697161749998,0.0012960148960999996
1.717769714634421e+18,0.00024814701145,0.000403033452927,-0.0009952937893114998
1.717769714834421e+18,-0.0112783730902,-0.0012596631713149998,-0.00018472926170099997
1.717769715034421e+18,-0.013834262523250002,0.0010519791742435,-0.0008054902980815
1.717769715234421e+18,-0.0232445636765,-0.00108785372591,-0.0007053501088279998
1.717769715434421e+18,-0.025050475775500004,-0.001355258101813,-0.0010638811624849999
1.717769715634421e+18,-0.018883490935000004,-0.0024883063334840004,-0.002811818674805
1.717769715834421e+18,-0.015254605981250002,0.00046306404102000007,0.00109479781821
1.717769716034421e+18,-0.0127170348535,0.00013803147887449986,0.00123965952664
1.717769716234421e+18,-0.011649427143000001,-0.00014991994248500019,0.0009493434918654998
1.717769716434421e+18,-0.004317273950565001,-0.0005014616414549999,6.614011362065001e-05
1.717769716634421e+18,-0.003976749264642858,0.0018328934785666665,0.0007274737027904761
1.717769716834421e+18,0.009194526250245,0.0014338368114200002,-0.002082152303875
1.717769717034421e+18,0.02083989493565,0.001044904082685,-0.0005355750149899998
1.717769717234421e+18,0.029377071001500006,0.00045334547184999974,0.0007814628741835
1.717769717434421e+18,0.025645409431,0.00064117478315,0.00121066339483
1.717769717634421e+18,0.023519891313,-0.0002210708829660001,-0.00018187860834000007
1.717769717834421e+18,0.019682489335,-0.0013058387323950003,0.000360503276115
1.717769718034421e+18,0.002317373378575,0.0025273085165434996,0.00025661106327
1.717769718234421e+18,-0.018807770125,0.0012228035601600002,-0.0004084731423604999
1.717769718434421e+18,-0.0272420949295,-0.00214508562343,-0.002704758447415
1.717769718634421e+18,-0.020417181123,-0.002553880936415,-0.0012519147741500002
1.717769718834421e+18,-0.0193438965825,0.00071529824634,0.00031634467306
1.717769719034421e+18,-0.014799327670450002,-0.00028463661138500003,6.139085160149994e-05
1.717769719234421e+18,-0.0115987550228,-0.0007323531785150001,0.0007080658134634999
1.717769719434421e+18,-0.00497390156998,0.0011815324657924503,0.0018038589405599999
1.717769719634421e+18,-0.004640142372319999,-0.0003993107965849999,-0.0015875379234855003
1.717769719834421e+18,-0.0026444047922100002,0.0006800746515199998,0.0003581055323900001
1.717769720034421e+18,0.006208167877225001,-0.000663108512535,-0.0012309505634000002
1.717769720234421e+18,0.016148851531699995,0.0034038227488249993,0.0017261439527400003
1.717769720434421e+18,0.023974768722999997,0.000746776247965,-0.00037896225109749994
1.717769720634421e+18,0.026568277179,-0.0012117753098100001,0.000249921734233
1.717769720834421e+18,0.026222397946999997,-0.0006980106728949999,-0.0003219243111245
1.717769721034421e+18,0.024964419473,0.0029904795285899998,0.000908457240478
1.717769721234421e+18,0.0040574192186999996,-4.7345086922499954e-05,-0.0009667589227364999
1.717769721434421e+18,-0.01460936826125,1.4823090266000063e-05,0.00048428219875249997
1.717769721634421e+18,-0.019637135137,0.00072913274625,-0.00044404024812300005
1.717769721834421e+18,-0.021082863306,-0.0008265284093265001,-0.001276567608805
1.717769722034421e+18,-0.020857103262500003,-0.0014563009550900001,-0.0004190878797450001
1.717769722234421e+18,-0.014766279746999997,-0.0032645387487449996,-0.002021581487525
1.717769722434421e+18,-0.011094334232500001,0.000986727903334,0.0007941494637
1.717769722634421e+18,-0.007704892591450001,-0.00012008870546,-1.3147310620000063e-05
1.717769722834421e+18,-0.007338026599354999,-1.6557253539000003e-05,0.000864890088255
1.717769723034421e+18,-0.00446185143667,2.899001125499991e-05,-0.000574929485485
1.717769723234421e+18,0.010057209339500002,0.00249643163399,-0.00031042585038099996
1.717769723434421e+18,0.021159671292499998,0.0002860785812435,-0.0009171633602885001
1.717769723634421e+18,0.02640697430952381,-0.0006741880763047616,0.0009147725816861905
1.717769723834421e+18,0.025104383751,-0.0017747285456699998,0.00062437070589
1.717769724034421e+18,0.0266300023535,0.0033559343486389997,0.00097147950734
1.717769724234421e+18,0.01402021266905,-0.00014150442732500002,-0.0002593118348415
1.717769724434421e+18,-0.01369962673605,-0.000503048347255,0.0001863111305340001
1.717769724634421e+18,-0.0211651462125,-0.0015074488852755002,-0.00195694902532
1.717769724834421e+18,-0.020776515919,-0.00032765883082500004,-0.00043156093157049993
1.717769725034421e+18,-0.0195648676715,-0.0001958464446885,-7.164553092499996e-05
1.717769725234421e+18,-0.018930172362850002,-0.00198664972864,8.37686964900004e-06
1.717769725434421e+18,-0.0133424728643,-0.0020154743892649997,-0.00030001593987500003
1.717769725634421e+18,-0.007921586069300001,0.0015963048791049997,0.0008874496299240001
1.717769725834421e+18,-0.00387794110852,-0.00044340893508999996,-0.0008781515673149997
1.717769726034421e+18,-0.004388073820020001,4.28977365065e-05,0.0006980289355615
1.717769726234421e+18,-9.704840171e-05,-0.0041824308397999995,-0.0019811044765735003
1.717769726434421e+18,-0.006234868665499998,-0.01209549421745,-0.03460822394
1.717769726634421e+18,0.0802674608795,0.12640966209184998,0.04996126524634999
1.717769726834421e+18,0.3464723601895,-0.040088277309499994,0.13172551230199997
1.717769727034421e+18,1.7868572235999998,0.081311725357,-0.20110312067000002
1.717769727234421e+18,0.40578582751500003,-0.11664361599949999,-0.535812518366
1.717769727434421e+18,-0.91322697798265,-0.37365046774199995,0.37393343188499995
1.717769727634421e+18,-0.79688121974,-0.04204680528600001,0.396730074285
1.717769727834421e+18,-0.680574096745,-0.1380814701555,-0.07838649687052499
1.717769728034421e+18,-0.3120323983955,-0.3155686099085,-0.09531626068650004
1.717769728234421e+18,0.048497350911749997,0.25047097392,0.025606280291000004
1.717769728434421e+18,0.820991906455,0.25333711586185004,-0.091931461908
1.717769728634421e+18,0.4805716156949999,0.33547752723,0.067400455853
1.717769728834421e+18,-0.05912099727525,0.04497718652710002,0.0014273371066499945
1.717769729034421e+18,-0.7393765985900002,0.04631762104249999,0.10948645565699999
1.717769729234421e+18,-0.5289651170349999,-0.2368037572786,-0.007029522238750009
1.717769729434421e+18,-0.11591789578030001,-0.13862320571685002,-0.07265319675035
1.717769729634421e+18,0.40632402159899994,0.3310977525909499,0.09333008769350001
1.717769729834421e+18,0.619803869705,0.17870240347205,-0.023310966701500003
1.717769730034421e+18,0.42116197199,-0.15764171652850004,-0.09999015256800001
1.717769730234421e+18,-0.17897261650684998,-0.13555878131399998,-0.017500899550500004
1.717769730434421e+18,-0.64269033074,0.048771427575500015,0.0897343918745
1.717769730634421e+18,-0.48143762065714285,-0.3347936231460952,-0.06477024774561906
1.717769730834421e+18,-0.03486359281405001,-0.055384066606,-0.03100246488135
1.717769731034421e+18,0.355846167369,0.025021205845000016,-0.06546263522250001
1.717769731234421e+18,0.47563342377,0.18319036135440997,-0.04468130498688
1.717769731434421e+18,0.4720153495699999,0.04668656936715,-0.00821788204525
1.717769731634421e+18,-0.1920709991805,0.16093407590350003,0.07244529940975
1.717769731834421e+18,-0.6289109260299999,-1.7861835999992415e-05,-0.027264837733500014
1.717769732034421e+18,-0.38179172873300005,-0.4330712311,-0.12482262177575003
1.717769732234421e+18,-0.13723321899135002,-0.020411934702500002,-0.036423870914500014
1.717769732434421e+18,0.24588150169223502,-0.035694782051999996,0.031553950994000005
1.717769732634421e+18,0.36738606915,0.20086317228900002,0.10235306028999999
1.717769732834421e+18,0.35955283791500003,0.025964638023414997,-0.004008426094999999
1.717769733034421e+18,0.35533872469500005,0.200914501405,0.0338786740733
1.717769733234421e+18,-0.32464396789104993,-0.074429854756,-0.0181716430891
1.717769733434421e+18,-0.6302929341749999,0.1519922450196,0.1328631330285
1.717769733634421e+18,-0.31185748614650005,-0.40153728425500007,-0.19118013657525
1.717769733834421e+18,-0.0028734515432500053,0.0635696929640865,0.0155559561944
1.717769734034421e+18,0.212526085965,0.013177923508630002,-0.036096079453249996
1.717769734234421e+18,0.34374669864,-0.09674779396015001,-0.1818035754412
1.717769734434421e+18,0.307814272495,0.001098863871899998,-0.07258026102936002
1.717769734634421e+18,0.385624982415,0.20040079689999998,0.029382620636200008
1.717769734834421e+18,-0.2726806131311,0.16363627166,0.18505996832194999
1.717769735034421e+18,-0.5684719890400001,0.12497497572899999,0.026846882137500007
1.717769735234421e+18,-0.5618168354049999,-0.19977136532900003,-0.0010086387465000019
1.717769735434421e+18,0.0038175477559999954,0.1146868876081,0.11785816784043501
1.717769735634421e+18,0.30551629625,0.0363355277852,0.013699490495199996
1.717769735834421e+18,-0.07593909165901,0.18339264709089997,-0.035361617477099996
1.717769736034421e+18,-0.056580095052349996,0.12244640653750001,0.1127928622005
1.717769736234421e+18,0.0684458118124,-0.17592707921945,-0.049831306747500005
1.717769736434421e+18,0.049410013572400005,-0.34005777165,0.0508531389745
1.717769736634421e+18,0.025172893745500007,-0.05268006308065002,-0.02467239339897
1.717769736834421e+18,-0.06694952329488499,0.20304826816100002,0.07717087072949999
1.717769737034421e+18,-0.02619226465515,0.02711018894785,-0.04392135115359999
1.717769737234421e+18,0.112532524306,0.007718497968199999,0.011487867363730999
1.717769737434421e+18,0.0656591184435,-0.0279864003183,-0.0365286803805
1.717769737634421e+18,0.05596084520285715,0.01987204005024762,-0.0004456658937123807
1.717769737834421e+18,0.07941254824800001,-0.033061184931534995,0.004564096048785
1.717769738034421e+18,0.07313238320205,-0.05558289855792501,-0.084468603388
1.717769738234421e+18,-0.026521587493350002,0.007920212204850001,0.01983125517125
1.717769738434421e+18,-0.03130668955799999,0.021708987537149997,0.0332472895852
1.717769738634421e+18,-0.025080713303,-0.01587390328625,-0.015482637030750002
1.717769738834421e+18,-0.02011193544595,0.004721081879270001,-0.0017698948620500001
1.717769739034421e+18,-0.06973380744499999,0.0240676003037,-0.00778888887447
1.717769739234421e+18,-0.060254175029000004,0.0020681357829999995,0.00845320159892
1.717769739434421e+18,-0.02206836035495,-0.019792596210774997,0.013338229129950002
1.717769739634421e+18,-0.0202637677773,0.00995698187675,0.01281951283945
1.717769739834421e+18,-0.022015817091000003,0.014752286334550002,0.013699012552299999
1.717769740034421e+18,-0.019306373317499997,0.011635494802579898,-0.030524186882600002
1.717769740234421e+18,-0.0008899030338300003,-0.013126022268965,-0.014892872707615001
1.717769740434421e+18,0.033177310509,-0.0006305706247200005,-0.004416191388704499
1.717769740634421e+18,0.037476602941000005,0.008133014652135001,0.0018681503163400005
1.717769740834421e+18,0.0425568833015,-0.005410589684849998,-0.005786943962909999
1.717769741034421e+18,0.0428968524555,0.000402863271335,-0.0007008833606699999
1.717769741234421e+18,0.025751430534825002,-0.014696867176193998,-0.00907178797927
1.717769741434421e+18,0.0189749365673,-0.005981157178723,-0.02043634740445
1.717769741634421e+18,0.008144835906265,0.0183214938848,0.01243858884575
1.717769741834421e+18,-0.01610867315325,0.0058963538212249995,0.0026077567478500004
1.717769742034421e+18,-0.024582798128,-0.006081931531590002,0.0019921237690255
1.717769742234421e+18,-0.039075216931,0.0007832559905161504,0.00987651352765
1.717769742434421e+18,-0.03927158685400001,-0.0064860327082749995,0.0016387833290100007
1.717769742634421e+18,-0.0309728299275,0.0015566227724199998,-0.0007122633847950001
1.717769742834421e+18,-0.025276644342,0.0015192572667500001,0.0011875779251314998
1.717769743034421e+18,-0.0069887309682999995,0.006183749606185001,-0.0005727683192999998
1.717769743234421e+18,-0.014225696771149998,0.009543079109044998,-0.0009409035648550001
1.717769743434421e+18,-0.00621693681455,0.0024777627026300003,-0.0004210850049000001
1.717769743634421e+18,-0.009993101126449999,0.0037673458456438506,-0.0038262079177800003
1.717769743834421e+18,0.01771152536425,0.00451569619455,-0.0084949103594775
1.717769744034421e+18,0.03406122559750001,-0.003955473553007,0.00018006804755000012
1.717769744234421e+18,0.0439014397575,0.0034443001318615004,0.0013684930861699999
1.717769744434421e+18,0.03329579820899999,0.001895875262515,-0.0014562572643299998
1.717769744634421e+18,0.03168062457714286,-0.004228064618695239,-0.0019864192222142857
1.717769744834421e+18,0.032047072611999995,0.0020464650586959994,-0.0015111893968250006
1.717769745034421e+18,0.010014534153953002,0.000497022210076,0.0008440013712755001
1.717769745234421e+18,-0.014951068803401999,-0.001613010168815,0.002279832356724
1.717769745434421e+18,-0.026206967491250004,-0.0017782823763750003,-0.000594633368015
1.717769745634421e+18,-0.033198595978000005,0.0006464996492599997,0.000518932689645
1.717769745834421e+18,-0.03610691051,-0.0019003905175600001,0.0013184548676393
1.717769746034421e+18,-0.029233417475000002,-0.0016336047964750002,-0.0011732515325250004
1.717769746234421e+18,-0.02115948014,0.002621428080612,0.0018062046350200002
1.717769746434421e+18,-0.02143541958675,-0.0010788388668145,0.00335428069807
1.717769746634421e+18,-0.018264324731299998,-0.0009234673809949998,0.00048295170132000003
1.717769746834421e+18,-0.01004508019565,0.000963110520405,-0.002318300440835
1.717769747034421e+18,-0.0033483812700250007,0.0019568154237,-0.0062904923691000005
1.717769747234421e+18,-0.006143095868145,0.003682882021825,-0.004641706982425
1.717769747434421e+18,-0.00581167905486,0.0050009495287349996,0.0013706738841400001
1.717769747634421e+18,0.007227897224585,0.005137605307295,2.7545402599999865e-05
1.717769747834421e+18,0.042383674253,0.0009205044480550002,-0.005887234624405
1.717769748034421e+18,0.049872498773499994,-0.004212725081069999,0.00254212082044
1.717769748234421e+18,0.045034189707,-0.003350581054525,-0.00304745116725
1.717769748434421e+18,0.041530298255,0.001894787667008,2.6715983430000094e-05
1.717769748634421e+18,0.020104497331375,-0.01019755590239,-0.005956514377619999
1.717769748834421e+18,-0.01565347630485,0.0026586470544299997,0.00213441496602115
1.717769749034421e+18,-0.032220971305,-0.0009143098898150001,0.00225648144850845
1.717769749234421e+18,-0.0378506165925,-0.005197992129075001,-0.00024400469546999995
1.717769749434421e+18,-0.0278453474865,-0.00019126663684450004,0.0031645863520015
1.717769749634421e+18,-0.021872697863499997,0.0026392965577399998,0.0015363563987949999
1.717769749834421e+18,-0.019233616424,0.000293309323055,0.00043988193061999994
1.717769750034421e+18,-0.010167421267154999,0.0006997373420015,0.00154502583609
1.717769750234421e+18,-0.0051085698359500005,0.0008680088271014999,0.0016005957645100002
1.717769750434421e+18,-0.003629146912204999,0.0024262686609850003,6.1020170691499985e-05
1.717769750634421e+18,0.018831816828449997,0.002836812654125,-0.0041302555736310005
1.717769750834421e+18,0.03228480219700001,-0.0010387004875350003,-0.00101368033504
1.717769751034421e+18,0.03944211686,0.00187053457491,0.0012544928366699996
1.717769751234421e+18,0.0385322581035,0.0003916161832599999,-0.0014711620402585001
1.717769751434421e+18,0.028131674415499998,0.000439522287255,-0.0003813309769950002
1.717769751634421e+18,0.016058202419999997,-0.0010639169050850003,0.0008514083020449998
1.717769751834421e+18,-0.011521234221019047,0.00024949283303714277,-0.001724072906752381
1.717769752034421e+18,-0.0161895742642,0.0005418366519960001,-0.00020838801582999996
1.717769752234421e+18,-0.022945923452000003,-0.0015133306384009998,-9.478633876499996e-05
1.717769752434421e+18,-0.03354226164549999,-0.00220120214822,0.000123059580905
1.717769752634421e+18,-0.0258534728555,-0.0020674897910799997,-0.0006935883488349999
1.717769752834421e+18,-0.0211437207645,0.00150867327464,0.000861733264172
1.717769753034421e+18,-0.018134014494500004,0.0013193894876200002,0.000722618430225
1.717769753234421e+18,-0.01679179442615,0.0012320885199000003,0.0009784399677415002
1.717769753434421e+18,0.04007712493175001,0.01321986417835,-0.0013827113610118003
1.717769753634421e+18,0.068244246393,0.012911384577349999,0.007252601435494999
1.717769753834421e+18,0.057468409463000004,-0.051480438001399995,-0.038496640138000006
1.717769754034421e+18,-0.05960761445530001,0.054005849274499994,-0.08271393375899999
1.717769754234421e+18,-0.0652067338095,-0.026851481709650005,-0.11320707947150002
1.717769754434421e+18,-0.15287917479500002,0.1937904856857,-0.04755727862775
1.717769754634421e+18,0.0169600076065,-0.1044415766495,0.014470332686200002
1.717769754834421e+18,0.0114560897143,0.06946820830599999,0.09407005608749999
1.717769755034421e+18,0.055162933515,0.052383073279000006,0.06084737233330001
1.717769755234421e+18,-0.09121285024700002,-0.08928590684724999,-0.0091059507694
1.717769755434421e+18,0.002027583343645002,-0.08941922225400001,-0.048628499405799996
1.717769755634421e+18,0.0424911189125,0.030382440844650006,0.017460163239850002
1.717769755834421e+18,0.0170095585752,0.05777664212450001,0.03539614824105
1.717769756034421e+18,-0.013339872401849997,0.04968773380405001,0.027463989891
1.717769756234421e+18,0.01780467187605,0.00188357316705,0.000688534087395
1.717769756434421e+18,0.01746076287205,-0.042885231134,-0.022504010260699998
1.717769756634421e+18,-0.0277686864614,-0.028610676130749996,-0.003367658162909
1.717769756834421e+18,0.024233648387154996,-0.01657522637395,-0.026899953513050003
1.717769757034421e+18,0.03218748820805,-0.0018299808985199994,0.0013205676164499997
1.717769757234421e+18,-0.07614261958845,0.025261462165599997,0.015017323580499998
1.717769757434421e+18,-0.023177446222760002,-0.012226475420179997,0.009834693674750001
1.717769757634421e+18,-0.03426763042805,0.03312139712478,-0.038337015433829995
1.717769757834421e+18,-0.016554320054245,0.02557409861425,0.029054381208950004
1.717769758034421e+18,0.03136649728955,-0.00646224479415,0.0027466565842099995
1.717769758234421e+18,0.0594973606995,-0.01740689995458,-0.004054001567529999
1.717769758434421e+18,0.05292629152449999,-0.0200889439687,-0.005509876954811
1.717769758634421e+18,0.038761753867999994,-0.019715319422585,0.01064803939328
1.717769758834421e+18,0.039836147001428575,-0.007822436535319048,-0.00010961981033333321
1.717769759034421e+18,0.039471238291,-0.004113924823795001,0.0016775627509000002
1.717769759234421e+18,0.027954860869999994,0.0069306245306,0.0090171967514
1.717769759434421e+18,-0.008683875157005,-0.00574905797295,-0.00428516785655
1.717769759634421e+18,-0.010338381857725001,0.0069493770251470004,0.0032632281079499996
1.717769759834421e+18,-0.008390589977845,-0.001495065216884,-0.0014978469728344499
1.717769760034421e+18,-0.00982953529425,-0.00415842071819,-0.0025897880987680003
1.717769760234421e+18,-0.011999337410350001,0.0008979244566500001,0.0002742764177205
1.717769760434421e+18,-0.0011900150567,-0.00229836504431,0.0019462635711250003
1.717769760634421e+18,-0.0032570928217899994,0.0010128860477845,-2.8565454819999983e-05
1.717769760834421e+18,-0.010396397393099999,-0.0008272783918799999,0.00021149992241499996
1.717769761034421e+18,-0.005915422964645,-0.001182395330415,-0.0009988739620199999
1.717769761234421e+18,-0.00015562342597,0.00037827053456999986,0.00014573971995
1.717769761434421e+18,-0.005593779793200001,-0.0018605462858050001,-0.001217448696792
1.717769761634421e+18,-0.006007821377925,0.0106336166674095,-0.006663449213799999
1.717769761834421e+18,0.0166863868005,0.017822947964435003,-0.0038656104908999997
1.717769762034421e+18,0.004742912581125,-0.004209193243795,-0.0008601227498775003
1.717769762234421e+18,-0.016105781041750002,0.0078096331447,0.00451935288167
1.717769762434421e+18,-0.0245273249676,-0.0022903562174644994,0.000245606273715
1.717769762634421e+18,-0.006463925773991501,-0.006601227737900001,0.004079072281799999
1.717769762834421e+18,-0.012235219707399998,-0.00016897220341499994,0.0028217813669349995
1.717769763034421e+18,-0.019935293868,-0.003045230393755,-0.0019288537616685502
1.717769763234421e+18,0.0037078684195000003,-0.007735546178049999,-0.0023692701884299996
1.717769763434421e+18,0.025455132405999996,-0.0007108792488199999,-0.0013021946855899997
1.717769763634421e+18,0.03194238851,-0.0004721586592574999,-0.00107523574121
1.717769763834421e+18,0.030709955375500003,-0.00435059639279,-0.0021832736848550003
1.717769764034421e+18,0.025520610622500002,-0.0025532940518749997,0.000186243213564
1.717769764234421e+18,0.04061397379825,0.009645006066634999,-0.0034924522334500003
1.717769764434421e+18,0.030722459964040005,-0.0315495552745,0.01362028842545
1.717769764634421e+18,-0.051469807234,-0.026482796435500007,0.014518294658399999
1.717769764834421e+18,-0.018497526255950004,0.004251896645404999,0.05252548332835
1.717769765034421e+18,0.009374918894307001,-0.02684754882975,-0.02962597382835
1.717769765234421e+18,-0.016946500201859997,-0.015330689307549999,-0.00946635438254
1.717769765434421e+18,-0.006703621679210001,0.025191659328875005,0.009005898266925
1.717769765634421e+18,-0.00596114696487,0.00442195305634,-0.025410024379099998
1.717769765834421e+18,-0.01768255000995238,0.003975271985190476,-0.008611457357910954
1.717769766034421e+18,0.02180864997095,-0.011801011732100002,-0.0030420601020999995
1.717769766234421e+18,-0.006142941032105001,0.0538468641689,0.046001865036184995
1.717769766434421e+18,-0.010326592426645001,0.01740654890955,-0.019897461333249995
1.717769766634421e+18,0.0036716992391600005,-0.009665958438120001,-0.012040739821355001
1.717769766834421e+18,0.004799016297099999,0.006790501990799999,-0.004921596589599999
1.717769767034421e+18,0.0235171713749,0.017420771135795,0.016053534010410004
1.717769767234421e+18,0.0020228487385509997,-0.02291638625365,-0.024402897431249997
1.717769767434421e+18,-0.0138224727698,-0.024837245559500003,0.002233659836715
1.717769767634421e+18,-0.004404359526765001,0.0008879450208500001,0.0059029427581
1.717769767834421e+18,-0.00045750694670000007,0.010721827787855,-0.003684261197400001
1.717769768034421e+18,0.00021716724187500003,0.001957384223205,-0.01510955913675
1.717769768234421e+18,-0.002835067290845,0.0231841386986,0.017103898111714
1.717769768434421e+18,0.0039186262803,-0.008366072916850001,-0.0014336582970499996
1.717769768634421e+18,-0.012653548721570002,-0.020161061127329998,-0.012062956983444999
1.717769768834421e+18,-0.025364962592950003,0.014128235499690004,0.026659471972199998
1.717769769034421e+18,0.0099209158447,-0.0311200971715,-0.026588571630899994
1.717769769234421e+18,-0.00149132524963,0.014564698946160002,0.0013362970990850001
1.717769769434421e+18,0.00548598927135,0.02386491162495,0.011298631434
1.717769769634421e+18,0.020177618413700003,-0.0147789456643,-0.012298461102445002
1.717769769834421e+18,-0.025850563537560007,0.07399429566700001,0.051319886183
1.717769770034421e+18,0.01026432681241855,0.005353006533700001,-0.01871663380845
1.717769770234421e+18,0.004409529460569999,-0.019054482597349997,-0.004166948719450001
1.717769770434421e+18,-0.032002054341500004,0.03057227200485,0.014199429363545
1.717769770634421e+18,-0.03464723606489999,-0.06640014667065,-0.0445809155238
1.717769770834421e+18,-0.03572314279100001,-0.03477179601239999,0.0002460974982700003
1.717769771034421e+18,0.026606779243344997,0.0032978216776999997,0.0023111220566500003
1.717769771234421e+18,0.0450922506865,-0.009770438704100002,-0.009951395518399998
1.717769771434421e+18,0.037031717691,0.02387977047,0.0031153660353799998
1.717769771634421e+18,0.04401278533,0.00232310906305,-0.01231622781
1.717769771834421e+18,0.06815137062150001,-0.03523915822185001,-0.025265119591504997
1.717769772034421e+18,0.02659742392145,0.02956031290670001,0.01915698764526
1.717769772234421e+18,0.058452237210000015,0.0177511931165,2.228281274999841e-05
1.717769772434421e+18,0.043148916587,-0.007611514092835002,0.01166817704265
1.717769772634421e+18,-0.004561308456599999,0.024694248771350003,0.016858896632314997
1.717769772834421e+18,-0.0583637605415,-0.058010747327500015,-0.024983277661
1.717769773034421e+18,-0.11200394765285715,-0.029411535998857142,0.002773385969533334
1.717769773234421e+18,-0.09114744289399998,0.0440657017745,0.038289147918
1.717769773434421e+18,-0.050076045842,-0.012451273517475,-0.007397240677729999
1.717769773634421e+18,-0.024985605385999997,0.0015786641628,-0.005040045444035
1.717769773834421e+18,0.01718878541185,-0.024176181923850005,-0.02074923100048285
1.717769774034421e+18,-0.0149990617526,0.0194839512239,0.022097254288300002
1.717769774234421e+18,-0.019352431035299995,0.026051668671249993,0.014709642407099996
1.717769774434421e+18,0.0060365389332,-0.055311880260500004,-0.03596943691450001
1.717769774634421e+18,-0.022695553616450002,0.007343254460000001,0.013745973608299999
1.717769774834421e+18,-0.022233461356,0.05657786913200001,0.030136741423585002
1.717769775034421e+18,0.0107840408171,-0.03565904420025,-0.03097101306735
1.717769775234421e+18,0.026492874742,-0.023881912428995004,-0.01690127190685
1.717769775434421e+18,0.011518840655100001,0.064315252378,0.0432283767965
1.717769775634421e+18,0.04506395245000001,-0.016869201092599997,-0.018514774457895
1.717769775834421e+18,0.064165146649,-0.057986298552899995,-0.045339578928715006
1.717769776034421e+18,0.005058316048315,0.06303264794420002,0.056258977577500015
1.717769776234421e+18,0.012594830361500001,0.007391578029050003,0.0003651114040600006
1.717769776434421e+18,0.00428747857785,-0.0697155743865,-0.046920874683245004
1.717769776634421e+18,-0.0658794729045,0.058419469975499995,0.049284167309
1.717769776834421e+18,-0.0428263440745,0.017203983950115,0.0066366027570499975
1.717769777034421e+18,0.00625663570265,-0.06880153566649999,-0.047446458972499994
1.717769777234421e+18,-0.028912401124499998,0.020949557928995,0.0265414236935
1.717769777434421e+18,-0.034905731445,0.042107869300450004,0.025055569456750006
1.717769777634421e+18,0.017944514129049998,-0.0589446763511,-0.03723441567199999
1.717769777834421e+18,-0.015362981648850003,0.010152833607499998,0.016275121434569502
1.717769778034421e+18,-0.024294606456499997,0.0497566753533,0.02877560490655
1.717769778234421e+18,0.013572797685649998,-0.04318196310255,-0.03713280062815
1.717769778434421e+18,0.02748289873095,-0.014288691350199997,-0.00930091291065
1.717769778634421e+18,0.005157724925639999,0.054888212960500005,0.0378461233337
1.717769778834421e+18,0.03496052636699999,-0.0214687772562,-0.02120006877735
1.717769779034421e+18,0.05605198303150001,-0.046921048395000005,-0.032139503652799994
1.717769779234421e+18,0.0055824521987425,0.058364687021499995,0.043322250432000005
1.717769779434421e+18,0.01923335283115,0.006854145275550001,-0.0029885622642749996
1.717769779634421e+18,0.034296899650749994,-0.0645712461325,-0.04307037172899999
1.717769779834421e+18,-0.030391521937900002,0.042854153131700004,0.0352418232944
1.717769780034421e+18,-0.037102008991904765,0.01682391206214286,0.009885460453999998
1.717769780234421e+18,-0.002905690550522,-0.06022005677100001,-0.039707368519999994
1.717769780434421e+18,-0.036797659191499986,0.034431661095300006,0.031608759122612504
1.717769780634421e+18,-0.032014550269,0.021032281267349996,0.007364628702850001
1.717769780834421e+18,-0.009178721858200001,-0.030331493076,-0.022522349326055
1.717769781034421e+18,-0.006110612990135001,-0.005057829042259999,0.0046082588465252
1.717769781234421e+18,-0.014552327850749999,0.021120928134500006,0.0200039836097
1.717769781434421e+18,-0.0068153620048949995,-0.004768681782445,-0.007902744092614999
1.717769781634421e+18,0.01392551546495,-0.022324633493199998,-0.020602313708999998
1.717769781834421e+18,0.00468718448563,0.02579358923289,0.01898203865965
1.717769782034421e+18,0.022507880116499998,0.01299870589265,0.0024621403687
1.717769782234421e+18,0.05445371586850001,-0.043860669806,-0.031056249699999993
1.717769782434421e+18,0.017076760856400003,0.025613439735505,0.025574969443399997
1.717769782634421e+18,0.0187353494116,0.022840875252504996,0.00446817796965
1.717769782834421e+18,0.04959215987550001,-0.0459674085495,-0.0320581409145
1.717769783034421e+18,-0.0015935475695000013,0.016599446103799997,0.016454194079500002
1.717769783234421e+18,-0.03506402699200001,0.029191129654600006,0.016826938302650002
1.717769783434421e+18,-0.0087574360539,-0.043512523173499996,-0.029094946477
1.717769783634421e+18,-0.0272472014473,0.00469730590695,0.010481878218650001
1.717769783834421e+18,-0.044160952698,0.03704948069072,0.0230162726131
1.717769784034421e+18,-0.01095075479195,-0.035160010355499996,-0.0276750816036
1.717769784234421e+18,-0.0111916027734,-0.009317394241699996,0.00031154102734999925
1.717769784434421e+18,-0.028378982748,0.04270617011849999,0.0296492357153
1.717769784634421e+18,-0.0033516107184299996,-0.023974942486349998,-0.020012371736384996
1.717769784834421e+18,0.00839478392151,-0.023394765617815005,-0.010542592842649998
1.717769785034421e+18,-0.019040917232000003,0.03924013283100001,0.0285098667244
1.717769785234421e+18,-0.0005549967163000003,-0.00816781824705,-0.017180282942554994
1.717769785434421e+18,0.0350641210575,-0.026299209246385003,-0.011675703828449999
1.717769785634421e+18,0.018436703691,0.032965564914,0.02388345386205
1.717769785834421e+18,0.024571651221000003,0.010782134371245,-0.0031875383112
1.717769786034421e+18,0.047221687715500005,-0.036562130786,-0.025550971088000002
1.717769786234421e+18,0.01589426867444,0.020947077892700002,0.021525398035950005
1.717769786434421e+18,0.01074729682925,0.026645167655749997,0.01321707620455
1.717769786634421e+18,0.011314859264800001,-0.042924424122,-0.029959694575
1.717769786834421e+18,-0.0292400709471,0.003167434758675,0.011822394035435
1.717769787034421e+18,-0.039001788851500005,0.030262847616549998,0.017186727536185
1.717769787234421e+18,-0.012587036382761905,-0.03479632469095238,-0.03094816607190476
1.717769787434421e+18,-0.0123773105093,-0.008010262147150001,0.0029183744914
1.717769787634421e+18,-0.037014426385,0.03135444270450001,0.025234716737279998
1.717769787834421e+18,-0.010315103438699999,-0.0174133995772,-0.013274887391
1.717769788034421e+18,0.0078820912634,-0.0217580380621085,-0.012631932837749998
1.717769788234421e+18,-0.012732269336149998,0.026314063835999997,0.026853045867000002
1.717769788434421e+18,-0.009098089631945,-0.015326012426234997,-0.01360110746475
1.717769788634421e+18,0.014878255757700002,-0.021502980444100005,-0.01798994824025
1.717769788834421e+18,0.00367468451733,0.043399854097,0.031285689026
1.717769789034421e+18,0.025637670839,6.559335135000003e-05,-0.010286654548655
1.717769789234421e+18,0.055589518323499995,-0.0459563300485,-0.03218915755845
1.717769789434421e+18,0.0151811262359,0.047752007143299996,0.03444868170195
1.717769789634421e+18,0.023176961764499997,0.0178973108762,-0.0005674010383000009
1.717769789834421e+18,0.0526467528195,-0.05601694239399999,-0.0400134828295
1.717769790034421e+18,0.006188795732764999,0.051713299261599996,0.033436099905
1.717769790234421e+18,0.005669149378285,0.008903668276689999,-0.0016906620818000011
1.717769790434421e+18,0.01431100068738,-0.04680413334845,-0.033541145921172494
1.717769790634421e+18,-0.022460443224000003,0.059140278025499995,0.039784755744000005
1.717769790834421e+18,-0.0353531004399,-0.019994441407599997,0.0026786865668499997
1.717769791034421e+18,-0.0360237625436,-0.04992815180465,0.006233654736195
1.717769791234421e+18,0.028733769286095,0.036206440283600004,0.010236284211900001
1.717769791434421e+18,-0.02623325567645,0.0014173655303,-0.022069350897749997
1.717769791634421e+18,0.0097281215954,-0.01694249158578,-0.01693993619973
1.717769791834421e+18,-0.05698049394400001,0.009538047440099999,0.012106974359449999
1.717769792034421e+18,-0.031808990851455,0.009497199812695,0.011739374639899996
1.717769792234421e+18,-0.0026642260753650003,-0.014911387814699997,-0.010598700464399998
1.717769792434421e+18,-0.007186970603700001,0.01207665619445,0.00176210714559
1.717769792634421e+18,0.012241614009850002,-0.0028197927863,-0.0046038736560219
1.717769792834421e+18,0.020757968537199998,-0.004575917456346,0.0011402406526400005
1.717769793034421e+18,0.031755579263,0.0031631063290800004,0.0046808440178
1.717769793234421e+18,0.024767643772,0.0018610511907999998,-0.0029559447516964996
1.717769793434421e+18,0.0245416653345,-0.0012203766905870001,0.0007200994704189996
1.717769793634421e+18,0.022675975645499995,-0.004377895572994999,0.000537452252625
1.717769793834421e+18,0.0173801983246,0.00324031479536,0.0017357599542600001
1.717769794034421e+18,-0.015561450244379998,0.004460331509355,-0.0016370378172249997
1.717769794234421e+18,-0.013183675078034997,0.0001397104698500004,-0.0008907487354465002
1.717769794434421e+18,-0.0031266451777666672,-0.0022159427559095236,-0.0018359764333857143
1.717769794634421e+18,0.0066806871619199985,0.0015001424414485,-0.000528058773515
1.717769794834421e+18,-0.062041665989399995,-0.06714677304733499,-0.043521551682745
1.717769795034421e+18,-0.017959388769000002,0.054336535552499995,0.07679496770800001
1.717769795234421e+18,0.35470810309499995,0.14547455422649996,0.18732737028499996
1.717769795434421e+18,1.77151780427,0.12471125184579998,-0.199440194001065
1.717769795634421e+18,0.22993918757999995,-0.012867515017950004,-0.25564202107800005
1.717769795834421e+18,-0.6823220048205,-0.321528272523,0.211913442605
1.717769796034421e+18,-0.9678919047400003,-0.1344982589605,-0.0525361454562
1.717769796234421e+18,-0.632797902845,-0.019186319794000005,0.07824888304350004
1.717769796434421e+18,-0.37177618982550503,-0.23512936680949997,-0.16181297027349997
1.717769796634421e+18,0.24441696751050004,0.08576637804500001,-0.08110444633655
1.717769796834421e+18,0.44440095573500005,0.07931837913590001,-0.027064719315199992
1.717769797034421e+18,0.6463932991099999,0.112445976956,0.04608622250009999
1.717769797234421e+18,0.3856534908935,0.37785696409999997,0.08332090927615
1.717769797434421e+18,-0.8374720349750001,-0.23115408345750005,-0.0581248568814
1.717769797634421e+18,-0.7336115628550001,-0.08831478713512801,0.03878688793819539
1.717769797834421e+18,-0.13155459390014998,-0.09697591769650002,-0.021261416463199997
1.717769798034421e+18,-0.041979265763,0.128454352542,-0.08889032788100001
1.717769798234421e+18,0.67743480653,-0.08489076687671,-0.18812590018550002
1.717769798434421e+18,0.6056850254499999,0.27450036098950004,0.1302238957495
1.717769798634421e+18,0.005691947606500003,0.255973997251,0.035537392932949996
1.717769798834421e+18,-0.8077697277050001,-0.23178434911850004,0.0032045364305000002
1.717769799034421e+18,-0.5176559895349999,-0.309384701867,-0.15641899462750003
1.717769799234421e+18,-0.13243515258449998,0.08972828034980002,0.030274283340849993
1.717769799434421e+18,0.4476913571450001,-0.056815644639,-0.035335848288999994
1.717769799634421e+18,0.47122607603499994,0.1929643013537,0.014088965579999996
1.717769799834421e+18,0.3176432706400001,0.10850918509982502,-0.128512087545
1.717769800034421e+18,0.3046721137105,0.35956821218999996,0.237617610772
1.717769800234421e+18,-0.6964723020800001,-0.1062969347053,0.16262789892414997
1.717769800434421e+18,-0.74899240806,0.06282871514449999,-0.15836482102985
1.717769800634421e+18,-0.222611604235,-0.24922682308299998,-0.12451330525849999
1.717769800834421e+18,0.088018665181,0.40021759523949996,0.22258594985449998
1.717769801034421e+18,0.5014767743650002,0.04890622552699999,0.129504532745
1.717769801234421e+18,0.5545258060099999,-0.24336697774699995,-0.15282259871999998
1.717769801434421e+18,0.437571019675,0.036261568258999996,0.04497605254400001
1.717769801634421e+18,-0.05942286692857145,0.04124708006280953,0.13329287241666665
1.717769801834421e+18,-0.83927931786,-0.22959811566549998,-0.239777981774
1.717769802034421e+18,-0.40631255581850007,-0.48659290968999996,-0.13161287615005
1.717769802234421e+18,-0.04886438804135,0.03365812362305,0.019616850929999995
1.717769802434421e+18,0.11983471647649999,0.090840934461,0.08007818513363499
1.717769802634421e+18,0.3755518444,0.055013512869000004,-0.1288868766285
1.717769802834421e+18,0.4878193780849999,-0.19142888356399998,-0.226689605795
1.717769803034421e+18,0.278677589445,0.27091885581450004,0.027997408516750005
1.717769803234421e+18,-0.03964593681145,0.22656723139749996,0.2151351071875
1.717769803434421e+18,-0.5228941023400001,-0.03005347433485,-0.00025106813700000115
1.717769803634421e+18,-0.46398857384500003,-0.18183183516454998,-0.0632073489338
1.717769803834421e+18,-0.42969124169000006,-0.23608650342249998,-0.0744635001826
1.717769804034421e+18,0.08327518297445,-0.031629507429999995,-0.10794227117280002
1.717769804234421e+18,0.18287011485235,0.053653283229,0.127680003368
1.717769804434421e+18,0.0523030404776,-0.019197487500549993,0.070432972073
1.717769804634421e+18,0.031928746563,0.21703121848100002,0.0347683261041
1.717769804834421e+18,-0.10879604592900001,0.417138577995,0.111853234655
1.717769805034421e+18,-0.03704129855915,0.33220746889,-0.05370982959649999
1.717769805234421e+18,-0.06001671462075,0.461098000415,-0.016450118924000005
1.717769805434421e+18,-0.217777743184,0.502593731875,0.26517051085700005
1.717769805634421e+18,-0.013343091675999999,0.10197784166869998,-0.282530114245
1.717769805834421e+18,-0.258964005855,0.441887853295,-0.04465821802240001
1.717769806034421e+18,-0.0863661145753,0.20713272065172,-0.2547767745324999
1.717769806234421e+18,0.040400651237400005,0.1841685105125,-0.07468403736611501
1.717769806434421e+18,0.005624651133954997,0.514168629045,-0.18695894816
1.717769806634421e+18,-0.11473088226650001,0.476503141225,-0.616301867375
1.717769806834421e+18,-0.10372963180145,0.22263843677499998,-0.40427180678
1.717769807034421e+18,-0.08076239628185002,0.25905574876899995,-0.08940039267625001
1.717769807234421e+18,-0.1482893443133,0.30421680014245,-0.04247480053445
1.717769807434421e+18,0.016670228287899998,-0.048351944307549986,-0.013136946616590001
1.717769807634421e+18,0.042624647170499984,-0.18722941832404996,-0.0115205020555
1.717769807834421e+18,0.030701106552349998,0.07182322276284,0.33673223003435
1.717769808034421e+18,1.4680331021600002,-0.10711377079000002,3.43436931365
1.717769808234421e+18,4.99227485655,-2.9450890399795004,1.0596827814929999
1.717769808434421e+18,0.8062439624499997,-5.5346393824,1.7308551769654996
1.717769808634421e+18,-3.15970880975,-6.2796529769500005,-0.7132398220845
1.717769808834421e+18,-1.276381784319524,-4.496747391476191,-0.9040649405238096
1.717769809034421e+18,0.47590027898000004,-1.5919345587999998,-0.8788834035549999
1.717769809234421e+18,0.28122925551,-0.33982695802505003,-0.309413701491
1.717769809434421e+18,2.0323317409750006,-0.11041554282499999,-0.9835461493750002
1.717769809634421e+18,-0.29053089787,0.09569211345914999,0.004014097632999998
1.717769809834421e+18,0.3244555385875,-0.09003670000650002,-0.3728016217
1.717769810034421e+18,0.12295904310050003,0.03191812904400001,-0.11516452552799998
1.717769810234421e+18,0.46967217996500005,0.13604264707,-0.564577487115
1.717769810434421e+18,1.0458959017144,0.2560089051725,-0.10880371043050001
1.717769810634421e+18,0.43349041864300003,0.1719776507193,0.1530796285805
1.717769810834421e+18,0.45077217073,0.0787542779263,0.0810913707145
1.717769811034421e+18,0.2289714805982222,0.04121844305944444,0.0668377295805
1.717769811234421e+18,,,
