Timestamps,Gyro_X,Gyro_Y,Gyro_Z
1.7177641718428396e+18,0.02425606411342857,0.02513625742142857,0.02202003774047619
1.7177641720428396e+18,0.029036179126315,0.033810542431,0.02194806800731
1.7177641722428396e+18,0.038206518728149994,0.053144445456,0.0036099067191000004
1.7177641724428396e+18,-0.04878146578380001,0.0127404689095,-0.00842540409665
1.7177641726428396e+18,-0.41393269151,0.018336046789049997,0.00635635728384
1.7177641728428396e+18,-0.48179208637000004,0.20115338825,0.052503091405649994
1.7177641730428396e+18,-0.57786621749,0.14403186030249998,0.1010870609483
1.7177641732428396e+18,-0.4879394457428571,-0.01441585774017619,-0.014537675793904763
1.7177641734428396e+18,-0.30594681387570005,0.04393131561584,-0.032789468764749995
1.7177641736428396e+18,0.14893924182090001,0.0281052261595,-0.0382159454962
1.7177641738428396e+18,0.504170184595,-0.2837800900742,-0.1362474968036
1.7177641740428396e+18,0.566015408935,0.051706995721249996,-0.010288725703050002
1.7177641742428396e+18,0.5371137887199999,0.06916761803655,0.025428548946080005
1.7177641744428396e+18,0.16354523347299998,0.007122235874750001,0.0097124543095
1.7177641746428396e+18,-0.18230221420004764,0.005062533891904767,-0.01066221111238095
1.7177641748428396e+18,-0.49890586286000005,-0.07228856905135,-0.03498608038125
1.7177641750428396e+18,-0.62448486686,0.002028923936150001,0.0036768557734849993
1.7177641752428396e+18,-0.5777920693199999,-0.09160751439450002,-0.02003326941105
1.7177641754428396e+18,-0.028780159264000005,-0.007482936512260006,-0.024453102679149998
1.7177641756428396e+18,0.37882371471,0.0591632912633,0.015907535268399997
1.7177641758428396e+18,0.5573580250150001,0.18257075660999997,0.0666825794867
1.7177641760428396e+18,0.5950513988699999,0.17645816742965,0.091285350784525
1.7177641762428396e+18,0.4193844809428572,0.03636263875171429,-0.06551591320152382
1.7177641764428396e+18,-0.1688990925432,0.0013826609149499994,-0.003092709148559999
1.7177641766428396e+18,-0.41086818575999995,0.0928175851735,0.06293232272999999
1.7177641768428396e+18,-0.7815862983449999,-0.0330154916384,-0.005568157852650001
1.7177641770428396e+18,-0.7166839629299999,-0.08601957764700001,-0.049442882976000004
1.7177641772428396e+18,-0.389013082535,-0.1718205183785,-0.07423336707165
1.7177641774428396e+18,0.026336117362,-0.05119535606289999,-0.034102014685700004
1.7177641776428396e+18,0.4554962161000001,0.38512281505809526,0.2771099743724286
1.7177641778428396e+18,0.588678662475,0.16437363808285002,0.1734974808915
1.7177641780428396e+18,0.538474717735,-0.027032350091650004,0.08262024382379501
1.7177641782428396e+18,0.5137477517150001,-0.12945878132900004,0.0027890412955749997
1.7177641784428396e+18,0.11877143857875001,-0.044623343041000005,0.009179236774539998
1.7177641786428396e+18,-0.31233292520500006,0.13533656760899998,0.036193058196199994
1.7177641788428396e+18,-0.59574323594,0.047079633925999995,-0.087113573635
1.7177641790428396e+18,-0.5603317419619048,-0.009877484957952383,-0.14883783949090332
1.7177641792428396e+18,-0.4841551572049999,-0.11769027765394999,-0.12835562768199998
1.7177641794428396e+18,-0.2026031600212,-0.14563591723435004,0.07363039922240003
1.7177641796428396e+18,0.4941303458050001,0.2013599455325,0.13665218341139998
1.7177641798428396e+18,0.7287586689,-0.027955627621699997,0.07490548430619999
1.7177641800428396e+18,0.58197333814,0.099649725666,0.0837242066835
1.7177641802428396e+18,0.45567268282000006,0.033171742696500015,0.0967649486736
1.7177641804428396e+18,-0.0613351001392,-0.020371568976244994,0.0069536017727000006
1.7177641806428396e+18,-0.46794296587619044,-0.07575575369123809,-0.14302186526095237
1.7177641808428396e+18,-0.74392237664,0.1205536236076,-0.0558699843236
1.7177641810428396e+18,-0.5896460562950001,0.025600121307750003,-0.14265184420549998
1.7177641812428396e+18,-0.24780987314550001,-0.08330567473425002,-0.0800719641185
1.7177641814428396e+18,-0.0013625078433500012,-0.23935826867499999,-0.15849309526100003
1.7177641816428396e+18,0.24233100042500003,0.11957579329585002,0.15147937434374997
1.7177641818428396e+18,0.644147752235,-0.027758901191000003,0.09203163697329998
1.7177641820428396e+18,0.5902591347666668,-0.18517356383714284,-0.08824146307809524
1.7177641822428396e+18,0.5299453213850001,-0.09229207686499999,-0.116918335855
1.7177641824428396e+18,-0.10382917954159998,0.012314247848499996,-0.0058980660519499985
1.7177641826428396e+18,-0.419984885305,0.206479109085,0.061681141898500005
1.7177641828428396e+18,-0.593157374855,0.32598278374,0.09302108953925001
1.7177641830428396e+18,-0.5018256858,0.017789441462800003,-0.07973463050849999
1.7177641832428396e+18,-0.3206318097235,-0.11081621211168498,-0.12059226195199998
1.7177641834428396e+18,0.14178338679650002,0.09421999090815,0.0610558523937
1.7177641836428396e+18,0.3277445236904762,0.35219671079904763,0.33682769537142854
1.7177641838428396e+18,0.505060870935,-0.222167411063,0.07571595376000001
1.7177641840428396e+18,0.585934099555,-0.34846392423,-0.140815883496
1.7177641842428396e+18,0.20801192950199998,0.02216628547735,-1.9757627499993048e-05
1.7177641844428396e+18,-0.20410378226838502,0.0198612478772,-0.007160158187000001
1.7177641846428396e+18,-0.41013095081,0.1555441580795,0.02500733323275
1.7177641848428396e+18,-0.57356221973,0.07085563093505,-0.0858832188905
1.7177641850428396e+18,-0.5635325880285714,-0.022350134344952383,-0.14128090227380954
1.7177641852428396e+18,-0.24367714980650002,-0.07217823844500001,-0.15528055644199998
1.7177641854428396e+18,0.2700835567815,0.1879421789185,0.16351044085450003
1.7177641856428396e+18,0.4409054845600001,-0.048709590318305004,0.1468757631185
1.7177641858428396e+18,0.591591010985,-0.371306407445,-0.086142756238
1.7177641860428396e+18,0.64388470202,-0.03579405563850001,0.025197555874849998
1.7177641862428396e+18,0.18825761708305003,-0.0961251692421,-0.04983234973500001
1.7177641864428396e+18,-0.18948110530285714,-0.05385685982642857,-0.07015992807571429
1.7177641866428396e+18,-0.4895306333849999,0.002881804400229999,-0.0206336591385
1.7177641868428396e+18,-0.7300347417499999,0.0492131318718,-0.009749672942950002
1.7177641870428396e+18,-0.49428580776500003,0.03411156147507499,0.00332772544265
1.7177641872428396e+18,-0.0782499006055,0.03266584309815,0.0365112547023
1.7177641874428396e+18,0.417996164415,0.11226487281000001,0.12309634973750001
1.7177641876428396e+18,0.4988868311,0.0034880180991999936,0.1072162204415
1.7177641878428396e+18,0.5041609391499999,-0.07322224444794999,0.013618927589
1.7177641880428396e+18,0.44829927597619057,-0.13335447860938093,-0.025082257443666666
1.7177641882428396e+18,-0.150809555682,0.0434365910471,-0.03741000392504999
1.7177641884428396e+18,-0.48987529724499995,-0.02328609680005,-0.10334562752450001
1.7177641886428396e+18,-0.593289771665,-0.017234826463499997,-0.06771830778875
1.7177641888428396e+18,-0.5205295309499999,0.0467237927856,0.0065602683006
1.7177641890428396e+18,-0.08217506050494999,0.006885572056900001,0.05177497649585
1.7177641892428396e+18,0.330924456936,0.056691533987,0.046709133309999984
1.7177641894428396e+18,0.5141660301428571,-0.05950238888190476,0.017485767426809528
1.7177641896428396e+18,0.581034086645,-0.024466632267499996,-0.0614790266465
1.7177641898428396e+18,0.5458137750600001,-0.04469373109112499,0.092432349219755
1.7177641900428396e+18,-0.16907340716649996,0.0369988144379,0.10841173646450002
1.7177641902428396e+18,-0.43508005589,-0.0366223209469,-0.107961530759595
1.7177641904428396e+18,-0.64241149128,0.06850369399435,-0.12174538299500001
1.7177641906428396e+18,-0.5761114954950001,0.052038721643,-0.05904465010765
1.7177641908428396e+18,-0.17037464492314286,0.10349325968538095,-0.01822284576987619
1.7177641910428396e+18,0.2139046236955,0.28405628949850004,0.14493820396899998
1.7177641912428396e+18,0.56391870679,0.013221307556199999,0.169632381937
1.7177641914428396e+18,0.6338409751599999,-0.10363184976999999,0.011848334781150001
1.7177641916428396e+18,0.515057069065,0.055962932928700006,0.126810531369
1.7177641918428396e+18,-0.075162721053,-0.0324096435225,-0.00646600490415
1.7177641920428396e+18,-0.4518842995200001,0.016284660830249997,-0.108247904107
1.7177641922428396e+18,-0.6536057323150002,-0.12373686134550002,-0.15041355825849997
1.7177641924428396e+18,-0.590454016409524,-0.17986581616000002,-0.09992867105333333
1.7177641926428396e+18,-0.261335888494,-0.044984893544849996,-0.027608746109600003
1.7177641928428396e+18,0.240558763038,0.1557453662245,0.07118135847869998
1.7177641930428396e+18,0.59217775763,-0.019432934372999998,0.0885906879815
1.7177641932428396e+18,0.6066186696350001,-0.18119693557,-0.02014322056305
1.7177641934428396e+18,0.554648375515,-0.383792116495,-0.2539969734955
1.7177641936428396e+18,-0.07017914587850001,-0.07296082373354998,-0.054737118957950005
1.7177641938428396e+18,-0.4295848579619047,0.19172489147142857,0.049231577000000006
1.7177641940428396e+18,-0.605636465555,0.15740566252900004,0.023378729682400002
1.7177641942428396e+18,-0.63838637919,0.08032675411155801,-0.0019309666713000003
1.7177641944428396e+18,-0.23572181213450003,0.051683478800680006,0.0006314728412499999
1.7177641946428396e+18,0.221272284351,0.127192561699,0.10009143604200002
1.7177641948428396e+18,0.461802363405,0.24002616302599997,0.216270895299
1.7177641950428396e+18,0.41904216706,-0.08551756410367,0.099035852633
1.7177641952428396e+18,0.5485299557400001,-0.2080515069955,0.07006998774345
1.7177641954428396e+18,0.2969873580347619,-0.2691998786857143,0.01482848055933333
1.7177641956428396e+18,-0.44068770408499996,-0.031140841880960002,-0.11411669407849998
1.7177641958428396e+18,-0.8221292048650002,-0.05209482923705,-0.105301992081
1.7177641960428396e+18,-0.6390562817450001,0.0577670942076,-0.01767141108875
1.7177641962428396e+18,-0.19849348464400002,-0.08329586563200003,-0.09016962303710001
1.7177641964428396e+18,0.251313646885,0.07877766011448,0.073428665291235
1.7177641966428396e+18,0.6219744071500001,0.0700089643856,0.25120923854000005
1.7177641968428396e+18,0.4835920376380952,0.15111734676357141,0.14691187760047622
1.7177641970428396e+18,0.43547452241,0.2232023335035,0.15399204811639997
1.7177641972428396e+18,0.44515148847999997,-0.1657871044245,-0.067116522213375
1.7177641974428396e+18,-0.05075654198690001,-0.055399703605999995,-0.029164110082549998
1.7177641976428396e+18,-0.42339764535499996,0.1215384099615,-0.0258340755943
1.7177641978428396e+18,-0.708003732565,0.031247114528649998,-0.17439993470499998
1.7177641980428396e+18,-0.6995250686950001,-0.002517694281050001,-0.1286787755685
1.7177641982428396e+18,-0.23671864967142855,0.06396472041652383,0.0043958428725714305
1.7177641984428396e+18,0.144008220651,0.05332548227399998,0.00010646832895000249
1.7177641986428396e+18,0.5508787900250001,-0.08441689861384999,0.020882317787800007
1.7177641988428396e+18,0.548892895885,-0.08062963704195,-0.018040239309399998
1.7177641990428396e+18,0.45942893772999993,-0.05817883484945,0.07116677266204
1.7177641992428396e+18,0.36359474201399994,-0.1490085794555,0.016455986730900003
1.7177641994428396e+18,-0.10126291659733003,-0.018430502059000004,0.05108746476285001
1.7177641996428396e+18,-0.4594147935430001,0.08280202390639999,-0.015196029782994998
1.7177641998428396e+18,-0.6193677187000001,0.16025401967410952,-0.012982616401142857
1.7177642000428396e+18,-0.620623233925,0.01809945337855,-0.09722929688180001
1.7177642002428396e+18,-0.172243951259,-0.0706828071765,-0.03365719388235
1.7177642004428396e+18,0.15369741749750002,-0.13917354735649998,-0.12204979304000001
1.7177642006428396e+18,0.40965149392500005,0.080592130262,0.1099262644323
1.7177642008428396e+18,0.3537920073625001,0.041381259139799995,0.03316392646795001
1.7177642010428396e+18,0.538703002045,-0.079580061315,-0.009823435078999996
1.7177642012428396e+18,0.16584166298714287,0.019582902170523813,0.043893120575095236
1.7177642014428396e+18,-0.29123774097500005,0.10160390273700001,0.043357437570599996
1.7177642016428396e+18,-0.321684894335,0.13595961098799997,-0.10250895367586502
1.7177642018428396e+18,-0.5016969084699999,0.049373150229634996,-0.10058469108359999
1.7177642020428396e+18,-0.18137493932469997,0.14198329988,-0.026349820715649997
1.7177642022428396e+18,-0.19804526183625001,-0.120233601143,-0.12202185406950002
1.7177642024428396e+18,-0.021903108857299996,-0.31669830606,0.10872229430499998
1.7177642026428396e+18,0.39296448691714286,-0.15583420138095236,0.014939242524285714
1.7177642028428396e+18,0.09349319733867,-0.0938111469105,-0.03586858015055
1.7177642030428396e+18,0.04743070593049999,-0.0224073837938,0.010948260479400002
1.7177642032428396e+18,-0.010322026832649999,0.01728055427116,-0.0003953740698434998
1.7177642034428396e+18,-0.02391992970345,0.006067099410598501,-0.026522171312
1.7177642036428396e+18,-0.02331514101726,0.0027794145754,-0.00757308660565
1.7177642038428396e+18,-0.006728447686769232,-0.04969368950276923,-0.002132165926906155
1.7177642040428396e+18,,,
