Timestamps,Acc_X,Acc_Y,Acc_Z
1.7177475011593116e+18,0.48252515521238093,4.8161704363333335,8.479958692238098
1.7177475013593116e+18,-0.07178322600749999,4.802620399349999,8.619967186099998
1.7177475015593116e+18,0.244321929932,4.7762377624,8.46003227225
1.7177475017593116e+18,-0.05742059324399999,4.887097228900001,8.56792041785
1.7177475019593116e+18,0.152225944489,4.82887580105,8.200120262150001
1.7177475021593116e+18,0.29484935754650005,4.9615973052,5.64739617915
1.7177475023593116e+18,0.020484901424999986,2.3200778732400003,7.403372108400001
1.7177475025593116e+18,-1.0648926871614286,-1.3428004891933334,11.341308485238095
1.7177475027593116e+18,-1.2943508834830002,-0.964160018904,14.033616942499998
1.7177475029593116e+18,-0.420483100895,-0.48180308534500005,10.334120087150001
1.7177475031593116e+18,0.41354502861965,-0.0006212081734999902,10.2191217277
1.7177475033593116e+18,-0.019287391727999977,1.6495996398550001,9.87894662505
1.7177475035593116e+18,-0.5413193206735001,2.74230484775,7.577639717149999
1.7177475037593116e+18,0.08128845976450003,3.7438645936,4.497180564999999
1.7177475039593116e+18,-0.49917624339476196,1.2321377563999998,9.633759351333335
1.7177475041593116e+18,-0.28194618985150005,-0.97137501537285,13.082075684500001
1.7177475043593116e+18,-0.573599693315,0.21990021516499994,11.9687059478
1.7177475045593116e+18,0.31357541656499993,0.48237938693499993,9.99043478405
1.7177475047593116e+18,-0.86511847685,1.7201329650549997,10.5390140068
1.7177475049593116e+18,0.3429667968555,2.8849058076,7.699815651
1.7177475051593116e+18,0.22616468810075005,3.59780582425,4.32991838835
1.7177475053593116e+18,-0.24476957048666673,1.7675671822999999,9.401642042095238
1.7177475055593116e+18,0.11830648035399997,-0.34381253815065,11.796144790499998
1.7177475057593116e+18,0.36107913211500003,0.419480186409,12.787271231999998
1.7177475059593116e+18,-0.6544465713914999,-0.08799451444055002,9.392218781
1.7177475061593116e+18,-0.5383405151646999,0.8128097534350001,10.05232358565
1.7177475063593116e+18,0.523843162498,1.7473014677499996,10.701291549249998
1.7177475065593116e+18,0.728340408315,2.8442952576000002,6.295548340000001
1.7177475067593116e+18,-0.14132860566350003,2.6974356537000004,6.4190789564
1.7177475069593116e+18,0.23913129532857139,0.7015197535504762,10.235137351428572
1.7177475071593116e+18,-0.5506898346207,-0.7938890991600001,11.947637259999999
1.7177475073593116e+18,-0.5569468230910001,-0.3517011337335,11.9819234615
1.7177475075593116e+18,-1.212321464495,-0.13706247711500005,9.8348109059
1.7177475077593116e+18,-0.8402177582849999,0.7055278473000001,9.976880469849998
1.7177475079593116e+18,-0.0026345215312499224,1.39004688257,9.85496649125
1.7177475081593116e+18,0.0004864882725000005,3.56628137975,4.1044123306
1.7177475083593116e+18,-0.06684670578461904,1.3197484260904762,9.031012769
1.7177475085593116e+18,-0.554267395052105,-0.6827601928598248,11.177443886050002
1.7177475087593116e+18,-0.5134323120303499,-0.842777435326,13.1847097555
1.7177475089593116e+18,-1.3803470535495002,-0.8263116760300001,10.07323509955
1.7177475091593116e+18,-0.898469123836,0.540623268137,9.481395836249998
1.7177475093593116e+18,0.23622377008,1.10298133854,10.506748603450001
1.7177475095593116e+18,0.7037989425454999,1.95313094335,8.724382553049999
1.7177475097593116e+18,-0.4786546325095238,2.689478629047619,4.844269147619047
1.7177475099593116e+18,-0.23548281090675008,0.9836869125144998,9.7595848385
1.7177475101593116e+18,-1.5648159485200002,-0.6408024443979999,11.275924095499999
1.7177475103593116e+18,-0.47007497407986004,-0.8000562744649999,11.607888771149998
1.7177475105593116e+18,-0.5554798736250001,-0.09908644867450002,9.5446917116
1.7177475107593116e+18,-0.1994078292581,0.18400485991749999,9.811953438900002
1.7177475109593116e+18,-0.7401583327850001,0.21996009063615002,9.6414654694
1.7177475111593116e+18,-0.885760551455,0.37076399231,9.9200736002
1.7177475113593116e+18,-1.2280320085714282,0.5412815421,9.81802616647619
1.7177475115593116e+18,-1.1756926346999999,0.60802061463,9.70859337625
1.7177475117593116e+18,-1.0559042359,0.718363655085,9.676215705799999
1.7177475119593116e+18,-0.9855056304850001,0.7322996749899999,9.6979505081
1.7177475121593116e+18,-0.8750203857399999,0.786225036605,9.566703437700001
1.7177475123593116e+18,-1.017613861075,0.667229988105,9.76321479035
1.7177475125593116e+18,-0.9562714233049998,0.6196589126450001,9.773243934499998
1.7177475127593116e+18,-0.9418841988619048,0.5878561183428571,9.769897679
1.7177475129593116e+18,-0.90417974854,0.5447247390600001,9.735978927649999
1.7177475131593116e+18,-0.981778381425,0.5583613815299999,9.786109680200001
1.7177475133593116e+18,-0.9594148864950001,0.526140884395,9.778228569099998
1.7177475135593116e+18,-1.0422975313,0.691075401315,9.737475814750002
1.7177475137593116e+18,-1.03488793937,0.7521034927300001,9.7065950318
1.7177475139593116e+18,-1.0585537262,0.7839871902400001,9.698871093799998
1.7177475141593116e+18,-1.100996180904762,0.843524453304762,9.599608939095237
1.7177475143593116e+18,-1.1110645294,0.8004679183900001,9.689904739500001
1.7177475145593116e+18,-1.0732082520000001,0.760426185615,9.716167625549998
1.7177475147593116e+18,-1.0907293167,0.7142097931,9.723824203500003
1.7177475149593116e+18,-1.04471500395,0.6669830017199999,9.726383880650001
1.7177475151593116e+18,-1.0442584533,0.6542145538499999,9.693931365900001
1.7177475153593116e+18,-0.9802740098050002,0.55637052154,9.816361770600002
1.7177475155593116e+18,-0.978315582252381,0.6300754655999999,9.767866189190475
1.7177475157593116e+18,-1.1247460785099999,0.710557388305,9.704686500550002
1.7177475159593116e+18,-0.73113210297,0.7703505477850001,9.73320220175
1.7177475161593116e+18,-1.002727317735,0.78757971955,9.6335244828
1.7177475163593116e+18,-0.9369990006,0.5390665054349999,9.7009966736
1.7177475165593116e+18,-0.968448600775,0.193659782412,9.731166435199999
1.7177475167593116e+18,-0.7378456420899999,0.12439881134549999,9.811691482500002
1.7177475169593116e+18,-0.7567812652550001,0.1140029296875,9.778243537799998
1.7177475171593116e+18,-0.8764132036809522,0.09875891548666667,9.71819091814286
1.7177475173593116e+18,-0.72804851532,-0.04511618042650001,9.840147308450002
1.7177475175593116e+18,-0.6786736907950001,0.03153192901015,9.795068550149999
1.7177475177593116e+18,-0.525691818245,0.1501153335615,9.74190660115
1.7177475179593116e+18,-0.36661013031,0.146013862609,9.79735878775
1.7177475181593116e+18,-0.52608849335,0.072636451718,9.71232810975
1.7177475183593116e+18,-0.491937011715,0.4310436401450001,9.8268923722
1.7177475185593116e+18,-0.9931418935761904,0.21939376831885718,9.78230045885714
1.7177475187593116e+18,-0.25329576872899995,0.36888539886650007,9.769920845300003
1.7177475189593116e+18,-0.73254666138,0.399055160525,9.69958211525
1.7177475191593116e+18,-0.749715957645,0.284498382575,9.78789097605
1.7177475193593116e+18,-0.556220832835,0.40653211211999996,9.834601341349998
1.7177475195593116e+18,-0.5772221603350001,0.35235227966499993,9.7571299438
1.7177475197593116e+18,-0.57237224578,0.407654777535,9.77321399695
1.7177475199593116e+18,-0.641694161557143,0.3526309858,9.786912296571428
1.7177475201593116e+18,-0.3805461502050001,0.5081183624200001,9.722679084700001
1.7177475203593116e+18,-0.555030807495,0.372305786125,9.952855429800001
1.7177475205593116e+18,-0.7893984375509999,0.5177059250080001,10.362733085050001
1.7177475207593116e+18,-0.26663303374150005,0.2535203018315,10.608477058450001
1.7177475209593116e+18,-0.1485660552805,0.053521202085099986,9.596581306450002
1.7177475211593116e+18,-0.020245399491449982,0.359963951095,10.121719277150001
1.7177475213593116e+18,0.012079879762500014,2.1134251098499997,10.23302032415
1.7177475215593116e+18,-0.33210937501857146,2.563911176380953,7.5151935033333315
1.7177475217593116e+18,-0.9436451798200001,2.9202398301000003,5.510341186549999
1.7177475219593116e+18,-0.5502482527949999,0.5142106933255,9.7529236914
1.7177475221593116e+18,0.0842223586775,-1.3170811157664999,11.849860587550001
1.7177475223593116e+18,-0.5571713563,-1.022126975984,12.478411010999999
1.7177475225593116e+18,-0.04125421145550002,-0.9478813706240002,10.529658461599999
1.7177475227593116e+18,-1.4161600800100003,-0.5386773146880002,9.4624452439
1.7177475229593116e+18,-0.666585257382381,0.5366554478095238,9.766925288571427
1.7177475231593116e+18,-0.25330325315200003,2.3493944092000003,6.144946517699999
1.7177475233593116e+18,-0.5342390442585,1.58816738893,7.227383079450002
1.7177475235593116e+18,-0.682715286275,-0.78827577213,10.180367316449999
1.7177475237593116e+18,-0.774968444805,-3.04570891575,13.18265902
1.7177475239593116e+18,-0.6945706329385001,-1.5206727447500001,11.073627274349999
1.7177475241593116e+18,-0.904883285520175,-1.23358474732,9.52511991135
1.7177475243593116e+18,-2.127254922042857,0.6399121530479952,9.863688354714284
1.7177475245593116e+18,-2.0802466048900006,1.545094459505,9.3200164259
1.7177475247593116e+18,-0.7323296127229999,2.4518413695500003,5.50894908145
1.7177475249593116e+18,-0.9818307723549999,0.9300758972280002,7.8562253951
1.7177475251593116e+18,-0.8234301681735001,-0.875888580344,11.34824619935
1.7177475253593116e+18,-1.524572135915,-1.3924419022049999,12.5788521435
1.7177475255593116e+18,-1.704093818755,-0.5091661834655,10.1877469707
1.7177475257593116e+18,-1.2515972900285715,0.07326906470285713,9.630715680523812
1.7177475259593116e+18,-0.9849442978280003,0.6718329162225,10.016083947450001
1.7177475261593116e+18,-1.0944715347504999,1.68167793278,10.13387399985
1.7177475263593116e+18,-1.091021209723,2.00588873285,9.17741546625
1.7177475265593116e+18,-0.181288009685,3.11256738285,5.1265467911
1.7177475267593116e+18,-0.4329372024442,1.71510342403,8.069681510950002
1.7177475269593116e+18,-0.8216937789975001,-0.48042594903799996,10.873201560550001
1.7177475271593116e+18,-1.25067171480225,-1.42860669699775,12.914529098500001
1.7177475273593116e+18,-1.7839117650809526,-0.9136429269559526,10.385296521619049
1.7177475275593116e+18,-1.7762362975699997,-1.0256895675295001,9.744136962799999
1.7177475277593116e+18,-1.526196258649,0.153992271422,9.6258005448
1.7177475279593116e+18,-1.4112877121170002,0.45686494442000003,9.8143035505
1.7177475281593116e+18,-1.4311588896749998,0.964594116255,10.07024132465
1.7177475283593116e+18,-0.785491561845,2.3273677139,6.49384098815
1.7177475285593116e+18,-0.407954154964,2.0531155243499994,6.5922238998500005
1.7177475287593116e+18,-1.6194181170071427,-0.8092599923766667,10.663254219238095
1.7177475289593116e+18,-2.47113624565,-1.9704798661400003,12.589038459399998
1.7177475291593116e+18,-0.8608373793549999,-0.83140857697,9.51979847675
1.7177475293593116e+18,-0.9531653823749998,-0.587438415517,9.62015727985
1.7177475295593116e+18,-0.41978704834849995,-0.7569608916749999,9.700959250999999
1.7177475297593116e+18,-0.08289012909495,-0.345451629645,10.06938809945
1.7177475299593116e+18,0.05179978180439998,-0.295957054133,9.825537689650002
1.7177475301593116e+18,0.07040359496809526,-0.09513787405699999,9.750095999714286
1.7177475303593116e+18,-0.8621696090150002,0.023748115536199998,9.7852714233
1.7177475305593116e+18,-0.9870100021499999,0.19324813842600003,9.7337785035
1.7177475307593116e+18,-0.9528585205600001,0.07964188385025,9.70547236635
1.7177475309593116e+18,-0.8822877731400001,0.0646655273445,9.685279358000003
1.7177475311593116e+18,-0.8308547287,0.23489154053150005,9.7002931366
1.7177475313593116e+18,-0.8651933212349998,0.34169444275499994,9.8192881851
1.7177475315593116e+18,-0.7566166076649999,0.4822671203750001,9.80025526425
1.7177475317593116e+18,-0.7622862461523809,0.5249939836714285,9.75846431190476
1.7177475319593116e+18,-0.7799830169649999,0.5383255462700001,9.777824409499999
1.7177475321593116e+18,-0.8171956329300001,0.5405110015899999,9.813689827100001
1.7177475323593116e+18,-0.7773335266150001,0.6688690795900001,9.76450959785
1.7177475325593116e+18,-0.85577041625,0.74678205871,9.7036536485
1.7177475327593116e+18,-0.8940982131549999,0.769242851255,9.697239486650002
1.7177475329593116e+18,-0.819433479305,0.8023689651450001,9.603781333899999
1.7177475331593116e+18,-0.9134932381761904,0.7483081708761904,9.748485063857142
1.7177475333593116e+18,-0.87980294037,0.735832328805,9.84371738455
1.7177475335593116e+18,-0.815691261295,0.792459571835,9.590384193300002
1.7177475337593116e+18,-0.7390281829800001,0.671271583565,9.688422821149999
1.7177475339593116e+18,-0.92243428799,0.67902545929,9.819475295950001
1.7177475341593116e+18,-0.8779991912799998,0.670440811155,9.760707504500001
1.7177475343593116e+18,-0.92235195922,0.613274688715,9.815403762799999
1.7177475345593116e+18,-0.8363322666666667,0.7440313502714285,9.74986790252381
1.7177475347593116e+18,-1.04039648454,0.769736824035,9.7117742615
1.7177475349593116e+18,-0.602474647515,0.881629142765,9.6820311126
1.7177475351593116e+18,-0.303329223625,0.7795788574300001,9.776776588899999
1.7177475353593116e+18,-0.9857226791800002,0.6851177902600001,9.610352668599997
1.7177475355593116e+18,-0.388861358635,0.75223072815,9.712694847049999
1.7177475357593116e+18,0.20723654938517502,0.2697989502065,9.834893234149998
1.7177475359593116e+18,0.8056959751714284,0.4769439043333333,9.708796168761905
1.7177475361593116e+18,0.13868659973015002,0.294168273925,9.8816634751
1.7177475363593116e+18,-0.41490719605000004,0.350009651185,9.77039984865
1.7177475365593116e+18,0.11235635374549999,0.5280718688999999,9.859696654550001
1.7177475367593116e+18,-0.13833483123510001,0.555165527345,9.711317710950002
1.7177475369593116e+18,0.091355026247,0.54842953491,9.79461948395
1.7177475371593116e+18,-0.053738250733,0.53452345276,9.729519859349999
1.7177475373593116e+18,-0.0018112335212499982,0.5921910323899999,9.72014934535
1.7177475375593116e+18,0.03569719586720952,0.12563160487380956,9.797133897666665
1.7177475377593116e+18,-0.15846796416500003,-0.07583230591135,9.7951883012
1.7177475379593116e+18,-0.17701439667149999,-0.1102083206187,9.800375015100002
1.7177475381593116e+18,-0.21773721313350003,-0.1303115158135,9.8563511126
1.7177475383593116e+18,0.046014312743250005,-0.1336271209625,9.788444824150002
1.7177475385593116e+18,0.23882086944999997,-0.11103160859099999,9.79025605775
1.7177475387593116e+18,-0.0420625305095,-0.06340065765275,9.78581030275
1.7177475389593116e+18,-0.1040122767824286,-0.049247589111190475,9.759725974
1.7177475391593116e+18,0.16235987091874998,-0.0610505447389,9.82988614645
1.7177475393593116e+18,0.099460670464,0.0610056381135,9.633494545099998
1.7177475395593116e+18,0.11797716522299999,-0.04012406158399998,9.872360320799999
1.7177475397593116e+18,-0.022064117429000003,-0.1609977035615,9.869845550600001
1.7177475399593116e+18,0.0024174728390000027,0.0325273590067,9.877449737800003
1.7177475401593116e+18,-0.252562293999,-0.008202941891139997,10.166019654100001
1.7177475403593116e+18,-1.2650550188119045,-0.4025557381433333,10.545042898714284
1.7177475405593116e+18,-2.838928916865,-1.217163894655,9.76927718435
1.7177475407593116e+18,-0.666997970562,-0.6911801834595,9.457228591300002
1.7177475409593116e+18,-1.5491136016640001,0.4261113967390999,9.80352596285
1.7177475411593116e+18,-0.5867049408595,0.7471113739884999,10.6864349443
1.7177475413593116e+18,-0.18793418887499994,1.8920055541449998,6.6991465527
1.7177475415593116e+18,-0.6349346466350001,1.62229641718,6.14669039155
1.7177475417593116e+18,0.15631993111,-1.2036245497825,10.24004072535
1.7177475419593116e+18,0.9277279227380952,-2.74795702252381,12.620384346190477
1.7177475421593116e+18,1.8258356551100001,-1.7373546523249999,11.03220840445
1.7177475423593116e+18,0.5990093536900001,-1.6117807845474998,10.188510383700002
1.7177475425593116e+18,0.013861175563499972,-0.539964637745,9.610659530800001
1.7177475427593116e+18,0.32050600426700016,0.099670234674,9.7517935412
1.7177475429593116e+18,0.0941018143,1.222036262545,8.469784492650001
1.7177475431593116e+18,-0.058782760637999976,2.3976765062000003,5.6640640183
1.7177475433593116e+18,0.0007555716238095066,0.031299198749047616,9.396424321047618
1.7177475435593116e+18,-0.3443963241711,-1.7055757370999998,12.326484443999998
1.7177475437593116e+18,-0.15600558474099996,-1.58710459902,12.406560424599999
1.7177475439593116e+18,-0.9213864669959502,-0.637546714796,9.611909431249998
1.7177475441593116e+18,-0.6971677322649998,0.14786251830549998,10.178885398399999
1.7177475443593116e+18,-0.28865224454500005,0.5870641936750001,9.68016748835
1.7177475445593116e+18,0.0030761031731500244,1.5512167281499998,9.468911796
1.7177475447593116e+18,-0.41670488631142844,2.536496756523809,6.441625998428572
1.7177475449593116e+18,-0.20054546356142997,1.923754531905,7.14821271515
1.7177475451593116e+18,-0.1718052292085,-0.5732254715395,10.84427421585
1.7177475453593116e+18,0.026831703191000016,-1.27322232057,12.948253968
1.7177475455593116e+18,-0.38867424774250003,-0.7691455536199999,11.05874821435
1.7177475457593116e+18,-0.5487663345365001,0.203928428651,9.54630086515
1.7177475459593116e+18,-1.260169464185,0.6692582702500001,9.96655943305
1.7177475461593116e+18,-0.62096120446,1.48468009184,9.505765159250002
1.7177475463593116e+18,-0.6936717878033334,2.043350830047619,9.44917177452381
1.7177475465593116e+18,-0.4306469650315,2.9400960389,6.19063151555
1.7177475467593116e+18,-0.2985541534135,2.34475405885,7.156894660900001
1.7177475469593116e+18,-1.1204051056400002,-0.008509803773000008,10.815930655250002
1.7177475471593116e+18,-0.9739870834050001,-1.121512802225,13.231277914500001
1.7177475473593116e+18,-0.6549405441128999,-0.7130047988849999,10.90596842185
1.7177475475593116e+18,-0.1150357818695,-0.23823708341690003,9.22016656475
1.7177475477593116e+18,-1.5373245456761904,0.43883030487476193,9.473350067285716
1.7177475479593116e+18,-1.3712908860450002,0.7477999420250001,9.6267286149
1.7177475481593116e+18,-1.4960264968794998,1.7920434266,9.9440537335
1.7177475483593116e+18,-0.4090468826994999,2.4420442427499998,6.26882141875
1.7177475485593116e+18,-0.9775571594500001,1.705538314795,7.78605132295
1.7177475487593116e+18,-1.29745692442,-0.8045993271235,10.568869423
1.7177475489593116e+18,-1.2875475310999998,-2.1952973555499997,12.232300299949998
1.7177475491593116e+18,-0.32537338256571424,-0.18038203644642853,9.328415744809524
1.7177475493593116e+18,0.7872504043145,-0.11203452299999998,9.962847152349998
1.7177475495593116e+18,1.1458447037200001,-0.02871029663150001,9.89839118985
1.7177475497593116e+18,0.25155937961569996,0.492430984495,9.93493020605
1.7177475499593116e+18,-0.20808977508700005,0.63069845582,9.833261626950001
1.7177475501593116e+18,-0.05821394348165001,0.75172927093,9.733351890549999
1.7177475503593116e+18,-0.005306465149,0.83219444275,9.7392122039
1.7177475505593116e+18,-0.010998556955285715,0.9267371259619048,9.744115578809524
1.7177475507593116e+18,-0.015283218382650001,0.9647288360349998,9.629355651800001
1.7177475509593116e+18,-0.1283056869495,0.903019660955,9.72214020535
1.7177475511593116e+18,-0.28621980286000004,0.83325723267,9.7631923371
1.7177475513593116e+18,-0.42231678771849995,0.744536727915,9.753889182950001
1.7177475515593116e+18,-0.50064889527,0.7029906234700001,9.740087883
1.7177475517593116e+18,-0.4135749664265,0.599061744685,9.849832168499999
1.7177475519593116e+18,-0.20817958832499997,0.5972954177750001,10.056163101750002
1.7177475521593116e+18,,,
