Timestamps,Acc_X,Acc_Y,Acc_Z
1.7178486354107996e+18,0.08550789968952381,0.08254976544609523,9.811675088761904
1.7178486356107996e+18,0.08551716613750002,0.07967930603050001,9.82680255895
1.7178486358107996e+18,0.6570960617395,-0.33313973236035,9.813794609450001
1.7178486360107996e+18,-0.18357076263649993,0.6259533233233951,9.829841239399999
1.7178486362107996e+18,-0.08568182373480004,-0.059119560259800044,9.920073600749998
1.7178486364107996e+18,9.7485078733,-1.9490070190324995,9.6256284027
1.7178486366107996e+18,5.969623603899999,2.63432688902,7.417308128389999
1.7178486368107996e+18,9.4078387989,9.952368942099998,0.6893988876724999
1.7178486370107996e+18,5.80431486495,9.85056564295,-6.232851219165
1.7178486372107996e+18,3.7260815742499993,5.370292419259999,4.6031377260325
1.7178486374107996e+18,0.7365957412650002,8.30374976369,4.362992111635
1.7178486376107996e+18,3.8543348693999997,10.73790541,1.9320847091950004
1.7178486378107996e+18,-0.21414468375999998,7.064686409149999,1.812954940785
1.7178486380107996e+18,1.8928363266,9.268995025799999,3.810506012079999
1.7178486382107996e+18,3.4872831573539997,7.1243074265500015,6.79541885385
1.7178486384107996e+18,-1.3028681716935,9.6221481401,2.258668075805
1.7178486386107996e+18,-0.413006149307,8.917862709000001,3.4302517547200004
1.7178486388107996e+18,-0.46071942905049995,7.618729270849999,4.4280468292999995
1.7178486390107996e+18,1.3117222594564997,10.6077061616,2.3193668518800004
1.7178486392107996e+18,0.2361788635579,9.266023704750001,2.29809608455
1.7178486394107996e+18,0.3459905090515,9.7797628788,2.313858306825
1.7178486396107996e+18,0.61864102930425,10.950134079349999,2.29549150085
1.7178486398107996e+18,0.83148342127,10.13206276735,4.578723495629999
1.7178486400107996e+18,5.6599101562,3.9978638991699995,3.482006629955
1.7178486402107996e+18,12.376914573499999,10.603993881300001,-3.357742538427
1.7178486404107996e+18,2.4517590408,10.62522722585,1.12667706296
1.7178486406107996e+18,0.7502398681195,9.4305839996,2.83159416955
1.7178486408107996e+18,1.3290113068499998,9.472302246149999,2.1168005905
1.7178486410107996e+18,1.0317968673100002,9.512149383550002,1.9653230895999996
1.7178486412107996e+18,3.5605483016500004,9.982927894400001,-0.9940977629999999
1.7178486414107996e+18,8.559425582515,11.475496581700002,0.3576811980649999
1.7178486416107996e+18,3.037745475795,6.619122962800001,1.5772251435105
1.7178486418107996e+18,1.354226371855,9.272984229349998,0.3671789474449999
1.7178486420107996e+18,1.97422956843,10.82658849305,0.013180091859999965
1.7178486422107996e+18,0.4348307648225001,8.3607661969,0.8458460540055001
1.7178486424107996e+18,0.34498260504190476,10.965425851523811,-1.096890433095238
1.7178486426107996e+18,0.39050045016000007,6.999362251349998,1.4423780594850002
1.7178486428107996e+18,2.0943248291409997,11.4736703797,2.7762991564084993
1.7178486430107996e+18,0.9875788192825002,9.46894173415,2.68525099179
1.7178486432107996e+18,0.8901389465780003,9.832842499384999,2.1257145537950004
1.7178486434107996e+18,0.7125257949550001,9.218175705299998,2.0740794297
1.7178486436107996e+18,1.0594069519749998,9.78965730275,2.0042346725500004
1.7178486438107996e+18,-0.41909099583299997,9.57939704085,1.1567944334749998
1.7178486440107996e+18,-2.96392648315,9.235861427249997,0.8952059097400001
1.7178486442107996e+18,-3.1316901170499998,9.007391532849999,1.253403533905
1.7178486444107996e+18,-2.525166389395,11.29119982935,0.8770262145944999
1.7178486446107996e+18,0.33002620697999996,8.593651908950001,3.2095956115
1.7178486448107996e+18,-5.48971408075,6.03100346375,4.6670173872500005
1.7178486450107996e+18,-0.337143905633,9.910081878249999,4.1723261031500005
1.7178486452107996e+18,0.17464183042570008,8.723634109349998,5.671975067149999
1.7178486454107996e+18,-4.9261884383,6.8478847504,5.2497406082
1.7178486456107996e+18,-4.7083389588,3.7382737199000005,4.404051727300001
1.7178486458107996e+18,-5.147076599000001,3.9909407958500003,6.7551151656
1.7178486460107996e+18,-5.5370980452500005,2.2514231415049997,7.7801311340499995
1.7178486462107996e+18,-7.533421668949998,0.97692098238,10.041658264099999
1.7178486464107996e+18,-7.055592819199999,0.945613586386,8.866190162750001
1.7178486466107996e+18,-7.563441741949999,2.04069884481,7.89030203235
1.7178486468107996e+18,-3.5216891097999996,3.4775908126749995,4.567736343350001
1.7178486470107996e+18,-3.514189704795,2.99416360475,3.9821016769499997
1.7178486472107996e+18,-6.78288990775,1.1080183639900003,9.26408523555
1.7178486474107996e+18,-8.46311586005,0.97227314765,11.0530824966
1.7178486476107996e+18,-6.0919118042000004,1.0100321274,7.612666877800001
1.7178486478107996e+18,-7.676449241599999,2.391015358035,6.873571334899999
1.7178486480107996e+18,-2.3635549621905008,4.2002879562499995,3.5582131575999996
1.7178486482107996e+18,-5.656766693125,1.91077651972825,4.45305233
1.7178486484107996e+18,-7.73267980955,0.2683843917949999,10.6086716538
1.7178486486107996e+18,-8.27399913025,1.0057360611150004,9.248061057800001
1.7178486488107996e+18,-6.7967585677999995,1.37620067602,7.29350058755
1.7178486490107996e+18,-7.0024159013,3.31010410305,6.455760177600001
1.7178486492107996e+18,-1.5144082718050003,4.2444610978,2.95123287955
1.7178486494107996e+18,-7.099728538549999,1.310988784825,5.91685084535
1.7178486496107996e+18,-9.172126464761904,0.9042909458900003,9.68042659209524
1.7178486498107996e+18,-7.70321358485,0.90394024658,8.085488640200001
1.7178486500107996e+18,-7.67265463265,2.070950935315,7.1499116821
1.7178486502107996e+18,-8.08027198805,2.1921164703400002,7.285971244650002
1.7178486504107996e+18,-0.09883197789499995,5.1571955566500005,2.467229370105
1.7178486506107996e+18,-5.768681465099999,1.7092580795169998,4.76613377385
1.7178486508107996e+18,-10.082994804799998,0.334150131286,10.17690202255
1.7178486510107996e+18,-8.268161270050001,1.3590313796915,9.29668743915
1.7178486512107996e+18,-5.8576863785,1.3837824096850002,7.103822525
1.7178486514107996e+18,-7.20879922485,2.298440368635,7.352724929750001
1.7178486516107996e+18,-3.8325776138979997,4.2516386719499994,4.6119918136
1.7178486518107996e+18,-3.1457309189200005,2.496658172573,2.8850330427999995
1.7178486520107996e+18,-7.758411300650001,1.2346774749459999,8.210897850099999
1.7178486522107996e+18,-8.95937139111,2.5390724716055004,8.857987221200002
1.7178486524107996e+18,-8.262143784100001,0.9615479507040001,6.9710186919999995
1.7178486526107996e+18,-5.622996917699999,1.4277010804,7.563434257349999
1.7178486528107996e+18,-6.878825409000001,1.38658158883,6.986713554350001
1.7178486530107996e+18,-6.69958813475,1.57117771915,7.0534822082
1.7178486532107996e+18,-6.516443984850001,1.5115117950499999,7.201202522299999
1.7178486534107996e+18,-6.59990293115,1.50148265075,7.149425193800001
1.7178486536107996e+18,-6.776056617699998,1.5128589935499999,7.00859056085
1.7178486538107996e+18,-6.815072982849999,1.5662454758,6.939479278549999
1.7178486540107996e+18,-6.80950456235,1.4327530747000001,6.93634329985
1.7178486542107996e+18,-6.8674266128,1.5382761384,6.963661491449999
1.7178486544107996e+18,-7.015528633099999,1.3897250518899997,6.819054702699999
1.7178486546107996e+18,-6.5289280244,1.505516761795,7.16508263405
1.7178486548107996e+18,-6.736942954999999,1.43694435885,7.10300672155
1.7178486550107996e+18,-6.6708404159,1.39914795675,7.1218974380999995
1.7178486552107996e+18,-6.3623169937499995,1.5601007538,7.27541819005
1.7178486554107996e+18,-7.096652435349999,1.6310157852,6.9451524811
1.7178486556107996e+18,-6.714571975800001,1.22999970242,7.069251914949999
1.7178486558107996e+18,-6.017217132600001,1.2775932311699998,7.566532814
1.7178486560107996e+18,-6.63433133705,1.743851143,7.0272043534
1.7178486562107996e+18,-6.456942718550001,1.7067358244999997,7.23542136385
1.7178486564107996e+18,-7.0494705505,1.5723003844649999,7.0402721786
1.7178486566107996e+18,-7.392085222523809,1.3737575421952384,6.097577166000001
1.7178486568107996e+18,-6.347647499100001,1.6743656387,7.2745649643500006
1.7178486570107996e+18,-5.889278182949999,1.6724571074999997,7.618519706699997
1.7178486572107996e+18,-6.7462760468,1.6822766875500001,7.164962882999999
1.7178486574107996e+18,-6.48598233045,1.4246249771499997,7.2586829910500015
1.7178486576107996e+18,-6.5061004944,1.5011608199,7.2804701843999995
1.7178486578107996e+18,-6.504745811399999,1.50496291345,7.2554347459000015
1.7178486580107996e+18,-6.4438823776500005,1.51583779895,7.2936652451
1.7178486582107996e+18,-6.4933021087,1.5850838013000002,7.259543701149999
1.7178486584107996e+18,-6.26850707245,1.5876809007,7.3704181366
1.7178486586107996e+18,-6.4748679426999995,1.69519482425,7.2689067307499995
1.7178486588107996e+18,-6.317575035150002,1.62694425205,7.3381901550999995
1.7178486590107996e+18,-6.4133608475,1.61442279055,7.3004087219
1.7178486592107996e+18,-6.416354621950001,1.5735278320000001,7.3285127793000004
1.7178486594107996e+18,-6.43597132865,1.5228058088499998,7.311867393550001
1.7178486596107996e+18,-6.435058227500001,1.50604067225,7.315370109599999
1.7178486598107996e+18,-6.452923576399999,1.4875466308,7.30579751585
1.7178486600107996e+18,-6.4463148192999995,1.47893204485,7.311410842900001
1.7178486602107996e+18,-6.4638583375,1.4848297806,7.310699821499999
1.7178486604107996e+18,-6.422581672550001,1.5136673125499998,7.311889846849998
1.7178486606107996e+18,-6.42480455005,1.5563510512499998,7.312039535500001
1.7178486608107996e+18,-6.397179496800001,1.5775769119,7.314891105650001
1.7178486610107996e+18,-6.3837000274,1.6183670883499999,7.298148422200001
1.7178486612107996e+18,-6.3947171173,1.5852409745,7.322165977449998
1.7178486614107996e+18,-6.421024910049999,1.56858061985,7.305864875749999
1.7178486616107996e+18,-6.415097236549999,1.5340025252999998,7.313618751449999
1.7178486618107996e+18,-6.4408362121,1.5182627563500002,7.311605438150001
1.7178486620107996e+18,-6.432468612699999,1.5004123764,7.31066239915
1.7178486622107996e+18,-6.446359725950001,1.47969545745,7.30460000605
1.7178486624107996e+18,-6.470107841549999,1.4920148393,7.311568016150001
1.7178486626107996e+18,-6.41061405945,1.4993495864500002,7.322368057300001
1.7178486628107996e+18,-6.5283666917000005,1.5492108993999998,7.2601050338999995
1.7178486630107996e+18,-6.3022693633,1.5883919221,7.367042655899999
1.7178486632107996e+18,-6.4479688796,1.6053067475999998,7.28433963765
1.7178486634107996e+18,-6.36319267265,1.6103213195500001,7.309210418649999
1.7178486636107996e+18,-6.4037658003999995,1.5804209975499999,7.320646637000001
1.7178486638107996e+18,-6.426764046809524,1.551894247904762,7.322209102000001
1.7178486640107996e+18,-6.418337997500001,1.5385979691,7.308948463449999
1.7178486642107996e+18,-6.4148053436999986,1.4968722381500001,7.2551428528000015
1.7178486644107996e+18,-6.7078734055,1.41071141045,7.220160598750001
1.7178486646107996e+18,-6.23374186695,1.38277201085,7.43986621855
1.7178486648107996e+18,-6.5769631345500015,1.4076652452,7.2555320435000015
1.7178486650107996e+18,-6.51028429415,1.4144835663,7.3009625701499985
1.7178486652107996e+18,-6.3723835601,1.5387476577,7.318685714750001
1.7178486654107996e+18,-6.406018615650001,1.5745157777499998,7.301935546849999
1.7178486656107996e+18,-6.43739337155,1.5617922363999999,7.2640418473
1.7178486658107996e+18,-6.4346690369,1.5286661223499998,7.3112012787
1.7178486660107996e+18,-6.444660759,1.52692224885,7.30620167545
1.7178486662107996e+18,-6.364644653249999,1.50327891545,7.346176048399999
1.7178486664107996e+18,-6.421878135599999,1.48688800055,7.3242765885
1.7178486666107996e+18,-6.524542144750001,1.4832505646,7.25848091135
1.7178486668107996e+18,-6.385915420500001,1.44261756135,7.347358589299999
1.7178486670107996e+18,-6.5889906236,1.4853761443500002,7.2330787353
1.7178486672107996e+18,-6.4279704666,1.4891857223,7.304382957349999
1.7178486674107996e+18,-6.480189376849998,1.5392940215000002,7.275425674350001
1.7178486676107996e+18,-6.444331443850001,1.5679893494,7.274033569399999
1.7178486678107996e+18,-6.4465992279,1.5870821456,7.256647224450001
1.7178486680107996e+18,-6.4458582687999995,1.5701523513500002,7.2767728729500005
1.7178486682107996e+18,-6.488848869250001,1.5531177749499998,7.254768631
1.7178486684107996e+18,-6.4883324433,1.52853140265,7.26187136075
1.7178486686107996e+18,-6.478131157,1.50654961395,7.2725741043
1.7178486688107996e+18,-6.5266078492,1.49432753,7.247935340899998
1.7178486690107996e+18,-6.468393905500001,1.4703024903,7.275620269850002
1.7178486692107996e+18,-6.491947425949999,1.4629752274,7.277461441
1.7178486694107996e+18,-6.49961897265,1.4757661284999999,7.26523935715
1.7178486696107996e+18,-6.482277534449999,1.47501020045,7.273427330000001
1.7178486698107996e+18,-6.49745597065,1.4819333037999998,7.25798693855
1.7178486700107996e+18,-6.504371589649999,1.4607822876500003,7.2906190795
1.7178486702107996e+18,-6.4891632156500005,1.5125820693,7.2692659836499995
1.7178486704107996e+18,-6.45068572995,1.5415917435500002,7.266302146899998
1.7178486706107996e+18,-6.451748519900001,1.5906971281999998,7.2633981858
1.7178486708107996e+18,-6.439337899285716,1.5837209210952379,7.26227658957143
1.7178486710107996e+18,-6.4874417953000005,1.5785349197,7.2496492767000005
1.7178486712107996e+18,-6.47014526355,1.5285164336999997,7.2709275282
1.7178486714107996e+18,-6.48951498395,1.5163691940499997,7.264206504800001
1.7178486716107996e+18,-6.50211129,1.5165413361499998,7.2492002106
1.7178486718107996e+18,-6.5196099014,1.4849270783,7.249896263199998
1.7178486720107996e+18,-6.496752433749999,1.47053450775,7.257927062949999
1.7178486722107996e+18,-6.550034133999999,1.45803549955,7.235788101199999
1.7178486724107996e+18,-6.486917884799999,1.50140780645,7.27130923455
1.7178486726107996e+18,-6.53318666835,1.5038177948,7.231342346199999
1.7178486728107996e+18,-6.491992332450001,1.5228582001999997,7.25907218165
1.7178486730107996e+18,-6.49202227025,1.5555053101,7.245727432450001
1.7178486732107996e+18,-6.460520278899999,1.5842605133,7.251917060799999
1.7178486734107996e+18,-6.479231369100001,1.57929833225,7.228131523149999
1.7178486736107996e+18,-6.481828468249999,1.5655269698,7.2496941834
1.7178486738107996e+18,-6.499237266500001,1.53646490485,7.2469024887
1.7178486740107996e+18,-6.502118774449999,1.518547165,7.24350455465
1.7178486742107996e+18,-6.515089302050001,1.4911915511500002,7.2533765258
1.7178486744107996e+18,-6.509318801899999,1.4795532532500002,7.243826385449999
1.7178486746107996e+18,-6.524639442500001,1.4704821166499997,7.250727035500001
1.7178486748107996e+18,-6.511391990600001,1.4796804887,7.2577100142500015
1.7178486750107996e+18,-6.503129173350001,1.4902709656500002,7.252643051099999
1.7178486752107996e+18,-6.502807342500001,1.5173047486000004,7.24255403155
1.7178486754107996e+18,-6.483542404200001,1.5383884047999998,7.2599852829
1.7178486756107996e+18,-6.4936763305500005,1.56362592315,7.250420173600001
1.7178486758107996e+18,-6.4298715133,1.5830405503,7.2515353545500005
1.7178486760107996e+18,-6.49948425285,1.56750286115,7.2464384537
1.7178486762107996e+18,-6.4738500595,1.5415767746,7.2559137495999995
1.7178486764107996e+18,-6.481327011099999,1.5395709458499998,7.25910960385
1.7178486766107996e+18,-6.5112123642499995,1.50178951265,7.25163265235
1.7178486768107996e+18,-6.495158248899999,1.49828679665,7.252455940200001
1.7178486770107996e+18,-6.5114069595,1.48274162285,7.259843078649999
1.7178486772107996e+18,-6.399013183550001,1.5100972367,7.265688423249999
1.7178486774107996e+18,-6.836530860950001,1.46064008335,7.065427368099999
1.7178486776107996e+18,-6.82615743265,1.48636409,6.979790451049999
1.7178486778107996e+18,-6.619661842350001,1.470796463,7.1002749024
1.7178486780107996e+18,-6.692874951952382,1.5695218767142858,7.089592830142858
1.7178486782107996e+18,-6.5402145539,1.5640001449,7.1485719680500015
1.7178486784107996e+18,-6.6687672271,1.55326746365,7.090575073250001
1.7178486786107996e+18,-6.6065865326,1.5372507706,7.143115814250001
1.7178486788107996e+18,-6.6441808549,1.50629514315,7.1271964187500005
1.7178486790107996e+18,-6.590420150700001,1.4811549225499998,7.174984542849998
1.7178486792107996e+18,-6.626704696649999,1.47129792025,7.1496497268
1.7178486794107996e+18,-6.5817531738,1.4505660324500003,7.188464012100001
1.7178486796107996e+18,-6.593092094399999,1.4265409926500001,7.200132247949999
1.7178486798107996e+18,-6.58861640175,1.4515390091500002,7.187767959550001
1.7178486800107996e+18,-6.58061553955,1.469389389,7.1840332260499995
1.7178486802107996e+18,-6.57403672035,1.4916630706000003,7.18993096155
1.7178486804107996e+18,-6.566230453450001,1.5177612991500002,7.1787417298500005
1.7178486806107996e+18,-6.579462936399999,1.53689151775,7.186892280600001
1.7178486808107996e+18,-6.531240715099999,1.5401173094999998,7.1774469223
1.7178486810107996e+18,-6.583339874249999,1.5074851684500001,7.1889804382
1.7178486812107996e+18,-6.5680566557999995,1.5027250670999999,7.186413276599998
1.7178486814107996e+18,-6.57639431755,1.4806834029,7.18326232905
1.7178486816107996e+18,-6.57728496545,1.4789021072,7.189751335150001
1.7178486818107996e+18,-6.589956115750001,1.46413531485,7.18528312685
1.7178486820107996e+18,-6.581887893599999,1.43660755925,7.187064422600001
1.7178486822107996e+18,-6.6289799652,1.4238690491,7.18064277655
1.7178486824107996e+18,-6.5984359817,1.4554234313999999,7.17978206645
1.7178486826107996e+18,-6.6007711258,1.4708189163000003,7.17190095525
1.7178486828107996e+18,-6.5990122833000004,1.4852114867,7.1625978013
1.7178486830107996e+18,-6.587171905450001,1.51823281855,7.177394531199999
1.7178486832107996e+18,-6.5817681428,1.5179933167000002,7.1702693482
1.7178486834107996e+18,-6.57291405495,1.54439092255,7.148961158750001
1.7178486836107996e+18,-6.5379018632,1.5370262375499997,7.169251464749999
1.7178486838107996e+18,-6.386566566400001,1.6140261154000002,7.214292800850001
1.7178486840107996e+18,-8.0943502117,0.6431824951187,6.24606873315
1.7178486842107996e+18,-8.01288961015,2.21607415007,10.422324164600003
1.7178486844107996e+18,-4.07201969145,7.287498070000001,7.5998310698500005
1.7178486846107996e+18,-0.576630889897,3.5570381011249994,1.636771316575
1.7178486848107996e+18,-4.8493831558,2.3510858917999995,4.7998287048099995
1.7178486850107996e+18,-8.808090624238096,0.48794246126666674,9.759782998761906
1.7178486852107996e+18,-7.3193069228,0.9284891967845,9.924960937299998
1.7178486854107996e+18,-6.2629236831999995,1.3847254487099998,8.04531218715
1.7178486856107996e+18,-5.519838935849999,3.0253737029999996,8.152070182849998
1.7178486858107996e+18,-2.26957289895,4.47059584805,3.728528984100001
1.7178486860107996e+18,-4.334708427400001,3.147811592,4.627701644850001
1.7178486862107996e+18,-9.338128761300002,0.7917934570655001,8.530715286300001
1.7178486864107996e+18,-8.6498600234,0.675769729628,9.5842020491
1.7178486866107996e+18,-6.508009025499999,1.3470862198395,6.68720139315
1.7178486868107996e+18,-6.8606157761999995,2.5148378678350003,8.926544654950002
1.7178486870107996e+18,-4.5489504089,3.7327876281999997,6.8348917694999995
1.7178486872107996e+18,-0.7981103211055,4.424409393255,1.68934947962
1.7178486874107996e+18,-6.970038230949998,1.7874779205650004,7.3140528486999985
1.7178486876107996e+18,-9.65205594575,0.20740120697780004,10.179035087900001
1.7178486878107996e+18,-7.673926986699998,0.8980799331614999,8.54490577685
1.7178486880107996e+18,-5.28444593805,2.424478271445,7.197827041550001
1.7178486882107996e+18,-6.684918640149999,2.54070407875,8.309393028150001
1.7178486884107996e+18,-3.9664592056850005,4.200250533999999,5.995400001600002
1.7178486886107996e+18,-2.639753105135,4.10343935395,2.6101446763000005
1.7178486888107996e+18,-6.8469042892499985,2.2187236404500004,7.42013724515
1.7178486890107996e+18,-8.645459175350002,0.47845754240599997,9.9033758241
1.7178486892107996e+18,-7.14349752035,1.158493400495,9.37486985785
1.7178486894107996e+18,-5.1062490004,2.031582801785,7.176713447499999
1.7178486896107996e+18,-6.6185691146,2.8094402389699997,7.904387740999999
1.7178486898107996e+18,-5.38715485385,3.499827072120001,7.268113380450001
1.7178486900107996e+18,-2.7963798981,4.809887786799999,4.319357849099999
1.7178486902107996e+18,-4.13770310225,2.8858712998000002,4.19346215065
1.7178486904107996e+18,-8.722421630800001,1.4823674011449999,9.148765045149998
1.7178486906107996e+18,-8.8377343368,0.984876937915,9.782846466349998
1.7178486908107996e+18,-5.73183558655,2.17662368777,7.204158874550001
1.7178486910107996e+18,-5.77937672435,2.5443340302065,7.362574447599999
1.7178486912107996e+18,-6.4673984755500005,3.00449961105,8.7951553801
1.7178486914107996e+18,-3.9222785796500004,3.8404662093499993,6.2415855559999995
1.7178486916107996e+18,-1.6440761260449999,4.804139739999999,2.8082277603500003
1.7178486918107996e+18,-5.74869053645,2.1121901778805,7.195836181599999
1.7178486920107996e+18,-8.755667495700001,1.29117748261,8.940308532800001
1.7178486922107996e+18,-6.799788338619048,1.1772732762291906,8.010370919523812
1.7178486924107996e+18,-7.0729342574,1.7855544203950005,7.4355551834
1.7178486926107996e+18,-7.055390739500001,1.2843741302493001,6.919772758399999
1.7178486928107996e+18,-6.530769195600001,1.7352889480500004,7.173068527149999
1.7178486930107996e+18,-6.797806388899998,1.3433365173000003,7.058107589699999
1.7178486932107996e+18,-6.42565029145,1.48970963295,7.2138736724
1.7178486934107996e+18,-7.748254920999999,1.1423120498150001,6.39548052975
1.7178486936107996e+18,-5.9175394135,1.7298627320119997,7.984044593849999
1.7178486938107996e+18,-6.8839672166,1.332626289425,6.546142227200001
1.7178486940107996e+18,-5.838481315699999,2.3326816635,7.36782852165
1.7178486942107996e+18,-6.048412261899999,2.78965887445,7.194930564849999
1.7178486944107996e+18,-6.388198173499999,2.0291952667,7.2252500153
1.7178486946107996e+18,-6.703382743899999,2.16142279815,7.105064941349999
1.7178486948107996e+18,-6.138300338749999,2.3668630828999997,7.267963691850001
1.7178486950107996e+18,-6.27262351235,2.3663391722999996,7.297123054500001
1.7178486952107996e+18,-6.2879591218,2.2432052307499992,7.3275547714
1.7178486954107996e+18,-6.1824285735,2.07202120975,7.303634513900002
1.7178486956107996e+18,-6.3505290070000004,1.9022143248999996,7.509785819999999
1.7178486958107996e+18,-5.6706952286000005,1.9341504134999998,7.526753036599999
1.7178486960107996e+18,-6.321594177250001,1.83516126245,7.47145802305
1.7178486962107996e+18,-6.135538581800001,1.9443367309500001,7.471577774000001
1.7178486964107996e+18,-6.054856361400001,1.9454668807500006,7.49686019905
1.7178486966107996e+18,-6.0713296051,2.0114272156999995,7.461294158950001
1.7178486968107996e+18,-6.10690312955,1.9475999450500001,7.48323104095
1.7178486970107996e+18,-6.113197540250001,1.9337013475000002,7.482856819200002
1.7178486972107996e+18,-6.1063193436,1.89658602905,7.497376625049999
1.7178486974107996e+18,-6.1341764146,1.8724786606500001,7.48660652155
1.7178486976107996e+18,-6.145290802,1.8577867126499998,7.48107552345
1.7178486978107996e+18,-6.07984689325,1.8556536484,7.516065261900001
1.7178486980107996e+18,-6.121190917950001,1.8418373795,7.4938963625
1.7178486982107996e+18,-6.12967078395,1.8328336029000003,7.493656860299998
1.7178486984107996e+18,-6.122066597000001,1.81591877745,7.516357154849999
1.7178486986107996e+18,-6.165453872799999,1.8403030699500005,7.47454909515
1.7178486988107996e+18,-6.127941879300001,1.8667081604500002,7.490663085950001
1.7178486990107996e+18,-6.11250897205,1.8885552292,7.49379906465
1.7178486992107996e+18,-6.096964154904762,1.9368651253333329,7.484970637761904
1.7178486994107996e+18,-6.067639778049999,1.9452648010499995,7.4903337708999995
1.7178486996107996e+18,-6.1051293181999995,1.9134784011999997,7.49290841675
1.7178486998107996e+18,-6.116131439250001,1.87549488835,7.496036911
1.7178487000107996e+18,-6.013175537050001,1.9506386261500002,7.573440948550001
1.7178487002107996e+18,-6.222402946400001,1.8097141798999998,7.2798265228000005
1.7178487004107996e+18,-6.6651522446,1.6581393814400003,7.1907168275
1.7178487006107996e+18,-6.144654624949999,1.9225345687000002,7.55243213655
1.7178487008107996e+18,-7.383463508599999,1.78851825715,6.3122835389
1.7178487010107996e+18,-6.36295317075,1.8789377288550004,7.417607505800001
1.7178487012107996e+18,-6.00926866145,0.8641829223,7.736945938149999
1.7178487014107996e+18,-4.879178695649999,1.633088974,7.798804801850001
1.7178487016107996e+18,-8.445362777649999,1.7182468872,6.062280922049999
1.7178487018107996e+18,-5.93250828545,1.4265260239999997,7.344971054049999
1.7178487020107996e+18,-6.14064296715,1.66196392825,7.5562192611
1.7178487022107996e+18,-6.86540581525,1.4477518844500001,7.046746215900001
1.7178487024107996e+18,-6.654090248150001,1.4282025376000003,7.190005806
1.7178487026107996e+18,-6.40018824,1.5438445587,7.245113708549999
1.7178487028107996e+18,-6.55012394725,1.4048211592499997,7.25098150635
1.7178487030107996e+18,-6.5365471802,1.4323713684,7.2365889358499995
1.7178487032107996e+18,-6.555497772099999,1.36766841885,7.255674247850001
1.7178487034107996e+18,-6.504087181149998,1.4596895599500002,7.255068008399999
1.7178487036107996e+18,-6.4649435806,1.53228858955,7.27965438085
1.7178487038107996e+18,-6.43343410495,1.56623799125,7.2650372773
1.7178487040107996e+18,-6.433666122449999,1.57556359865,7.26729009245
1.7178487042107996e+18,-6.46290781405,1.50390012355,7.2744826355
1.7178487044107996e+18,-6.49818944545,1.4776447220000002,7.274714652999998
1.7178487046107996e+18,-6.5105687027000005,1.4248345413000003,7.263929580700001
1.7178487048107996e+18,-6.50784436805,1.39438037105,7.2629491196
1.7178487050107996e+18,-6.5323334425,1.3802796936000001,7.253234321599999
1.7178487052107996e+18,-6.554427497900001,1.353320755,7.256894210799999
1.7178487054107996e+18,-6.514804893350001,1.36733910375,7.270590728749999
1.7178487056107996e+18,-6.5461946182,1.4229858857000002,7.2392608794000015
1.7178487058107996e+18,-6.471716995150001,1.4530508652,7.277985351550001
1.7178487060107996e+18,-6.4758409196,1.5079192657500002,7.282505950950001
1.7178487062107996e+18,-6.4240482656666655,1.548843449142857,7.264735761333332
1.7178487064107996e+18,-6.445880722149999,1.53413724515,7.273704254249999
1.7178487066107996e+18,-6.49494868465,1.5033013688500003,7.26974498755
1.7178487068107996e+18,-6.493100028950001,1.43803708645,7.266496742150001
1.7178487070107996e+18,-6.50337615965,1.4132860566,7.270485946800001
1.7178487072107996e+18,-6.525627387899999,1.3917907562500003,7.257829765200002
1.7178487074107996e+18,-6.515253959649999,1.3738430786,7.26471544645
1.7178487076107996e+18,-6.534571289050001,1.3682222671999997,7.254177360549998
1.7178487078107996e+18,-6.54061122885,1.3581182784999999,7.26139984135
1.7178487080107996e+18,-6.524437362699999,1.38745726775,7.2558838119499995
1.7178487082107996e+18,-6.5011457978,1.41244031525,7.26803853615
1.7178487084107996e+18,-6.4848222427,1.4864539032999997,7.268749557449999
1.7178487086107996e+18,-6.478303298999999,1.51690807345,7.270867652849999
1.7178487088107996e+18,-6.433628700350001,1.5582221603000004,7.266421897950001
1.7178487090107996e+18,-6.4223421708,1.55422547135,7.281488067700001
1.7178487092107996e+18,-6.479201431300001,1.49580944815,7.2780302581
1.7178487094107996e+18,-6.48618441015,1.4684388657499998,7.273195312499999
1.7178487096107996e+18,-6.4891257934999995,1.4315630493499998,7.267761611900001
1.7178487098107996e+18,-6.521967498699999,1.4073059921,7.2710547638
1.7178487100107996e+18,-6.5044239807499995,1.4062282332499998,7.266219818149999
1.7178487102107996e+18,-6.5202086562999995,1.3791719970999998,7.2633308257
1.7178487104107996e+18,-6.536824104249999,1.3751079482999997,7.264827712949999
1.7178487106107996e+18,-6.510838142349999,1.3872776412999999,7.265194450299999
1.7178487108107996e+18,-6.512634407,1.42389898685,7.26209589385
1.7178487110107996e+18,-6.48277899175,1.4533652115,7.267290092400001
1.7178487112107996e+18,-6.454659965599999,1.5044764251499998,7.283673523
1.7178487114107996e+18,-6.429340118250001,1.5416665878,7.259281745899999
1.7178487116107996e+18,-6.466365623500001,1.49673751835,7.279766647249998
1.7178487118107996e+18,-6.49885556025,1.4602508926,7.270321289100001
1.7178487120107996e+18,-6.488616851699999,1.4258673935,7.2734872054999995
1.7178487122107996e+18,-6.520216140850001,1.40226148215,7.265142059249999
1.7178487124107996e+18,-6.5072456132,1.3987138595000002,7.265194450250002
1.7178487126107996e+18,-6.519811981150001,1.3660742339500003,7.2594688569
1.7178487128107996e+18,-6.53906943505,1.3600567475,7.2606888198999995
1.7178487130107996e+18,-6.51681820685,1.381162857,7.265688423199999
1.7178487132107996e+18,-6.514969550949999,1.41607775125,7.269041450399999
1.7178487134107996e+18,-6.481913648380953,1.448879895952381,7.270894383047619
1.7178487136107996e+18,-6.480720771750001,1.4931375045500002,7.2687121352999995
1.7178487138107996e+18,-6.446906089800001,1.5139592057,7.2629042130000006
1.7178487140107996e+18,-6.438156783949999,1.53700378425,7.28413007355
1.7178487142107996e+18,-6.469404304399999,1.5048731003,7.2670206527
1.7178487144107996e+18,-6.484328270000001,1.4685511322999998,7.278666435300001
1.7178487146107996e+18,-6.50226846315,1.4208079148500001,7.258922493
1.7178487148107996e+18,-6.49857863605,1.39881115725,7.275814865149999
1.7178487150107996e+18,-6.530799133250001,1.3860127715000001,7.256632255650001
1.7178487152107996e+18,-6.5107932357500005,1.3772335281,7.262814399750001
1.7178487154107996e+18,-6.540985450799999,1.3462928695,7.258585693300001
1.7178487156107996e+18,-6.5246618956999995,1.3739703140500001,7.264962432750001
1.7178487158107996e+18,-6.5121778565,1.40375088505,7.266040191650001
1.7178487160107996e+18,-6.5040048522500005,1.4381867753,7.261407325699999
1.7178487162107996e+18,-6.4688280028500005,1.4725627899,7.281907196099999
1.7178487164107996e+18,-6.4696138686,1.507889328,7.2719454117
1.7178487166107996e+18,-6.4394291381499995,1.52959419255,7.271586158749999
1.7178487168107996e+18,-6.4703847655499995,1.5015425262,7.271870567400001
1.7178487170107996e+18,-6.466994316200001,1.4847773894999998,7.275844802850001
1.7178487172107996e+18,-6.493002731350001,1.4492188338999998,7.269774925199999
1.7178487174107996e+18,-6.495263030999999,1.41976009375,7.273262672449998
1.7178487176107996e+18,-6.5235242615499995,1.3972693634500002,7.262013565000001
1.7178487178107996e+18,-6.5006293716000005,1.3758938140499999,7.271428985600001
1.7178487180107996e+18,-6.5335833436,1.3692476348,7.2547461775999995
1.7178487182107996e+18,-6.50943855285,1.3811628571,7.281226112250001
1.7178487184107996e+18,-6.514078903150001,1.3984144820499997,7.262178222749999
1.7178487186107996e+18,-6.488482132,1.4282923507499998,7.27739408115
1.7178487188107996e+18,-6.48585509485,1.4654600600999999,7.27178823855
1.7178487190107996e+18,-6.468715736449999,1.4882950743999999,7.279991180399999
1.7178487192107996e+18,-6.43893516545,1.5318021009999998,7.276974952699999
1.7178487194107996e+18,-6.449233749500001,1.52385363015,7.276129211499999
1.7178487196107996e+18,-6.4683040923999995,1.4936988372500002,7.28133837905
1.7178487198107996e+18,-6.4882501145500004,1.4748605117,7.278112586850002
1.7178487200107996e+18,-6.4774351043,1.4349011077,7.272843544
1.7178487202107996e+18,-6.506482200650001,1.4159654846999996,7.2644834289
1.7178487204107996e+18,-6.502428131047618,1.4030181231428573,7.275370788571429
1.7178487206107996e+18,-6.522543800149999,1.3642854537499998,7.2546114579
1.7178487208107996e+18,-6.547339736950001,1.3672343215499998,7.29863491055
1.7178487210107996e+18,-6.4625934677000005,1.42541832725,7.295498931799999
1.7178487212107996e+18,-6.648027855,1.3149181137199997,7.107190521300001
1.7178487214107996e+18,-6.61589717115,1.5945590973,7.121395980799998
1.7178487216107996e+18,-6.783511116,1.5326553267999998,7.035542015050001
1.7178487218107996e+18,-6.644540107749999,1.5674429855999998,7.128992683349999
1.7178487220107996e+18,-6.4040651779,1.5565231934000001,7.268577415400001
1.7178487222107996e+18,-6.5333662949,1.5846272506499999,7.19931644445
1.7178487224107996e+18,-6.478842178399999,1.5726521530500002,7.224988059899999
1.7178487226107996e+18,-6.6542324525,1.5354170837999999,7.14122225195
1.7178487228107996e+18,-6.534189582650001,1.5189662931999999,7.19324656685
1.7178487230107996e+18,-6.69120556635,1.423038276685,7.19549938205
1.7178487232107996e+18,-6.61621151735,1.4645469588900002,7.024180641149999
1.7178487234107996e+18,-6.733290550199999,1.72989266965,7.1288729324
1.7178487236107996e+18,-7.5218806686,0.9715172196065,6.671334388699999
1.7178487238107996e+18,-6.618419425899999,0.8637263717054999,8.977319068849999
1.7178487240107996e+18,-5.37130281827,5.0740958636,9.221611061199999
1.7178487242107996e+18,-4.112263503949999,7.19224365245,4.905306861800001
1.7178487244107996e+18,-1.952442375235,1.8722167053750003,1.3626987533272499
1.7178487246107996e+18,-5.95663062295,2.7529926224,6.81991541295
1.7178487248107996e+18,-7.62052553555,1.074465637165,10.234023238850002
1.7178487250107996e+18,-8.30714769755,1.047454307568,9.522051293149998
1.7178487252107996e+18,-5.518731239399999,1.9311117324999998,7.209525215200001
1.7178487254107996e+18,-7.608310935899999,1.7054934082700002,7.7721078187
1.7178487256107996e+18,-4.419327461270001,4.6430746765,6.5571817702500015
1.7178487258107996e+18,-0.6849980392400001,4.23248600015,2.4847204972
1.7178487260107996e+18,-6.914376480099999,2.159461875905,7.08061328885
1.7178487262107996e+18,-8.2890428466,0.42527313993,10.181998924199998
1.7178487264107996e+18,-7.936466033849999,1.54644165803,9.3834320522
1.7178487266107996e+18,-5.78650939185,2.1635034713350003,6.78703628545
1.7178487268107996e+18,-7.373905883849998,2.0467313003195,8.2929422378
1.7178487270107996e+18,-4.95208458715,3.7305797195000006,6.552668655450001
1.7178487272107996e+18,-1.3010943603850003,5.330954223700001,3.0116397628000002
1.7178487274107996e+18,-5.7350913163,2.59379866795,5.6575525589
1.7178487276107996e+18,-8.093576464000002,0.48348031189999996,9.765613730476192
1.7178487278107996e+18,-8.329593521300001,0.726312126131,10.239688956750001
1.7178487280107996e+18,-4.832101593,1.7083150405050003,7.097565536500001
1.7178487282107996e+18,-6.97580873105,1.7814379805975,7.1943318099999995
1.7178487284107996e+18,-6.500928749000001,3.6271073913499996,7.43749365235
1.7178487286107996e+18,-5.601988105750001,4.199067993150001,6.2282782289
1.7178487288107996e+18,-2.5895250549,4.8311361008,2.78384346765
1.7178487290107996e+18,-5.526238128599999,2.7454258575699995,5.904089882
1.7178487292107996e+18,-8.719083572300002,0.17544266512400003,9.588161316
1.7178487294107996e+18,-8.6435880661,1.2565395125899999,9.624490768149998
1.7178487296107996e+18,-5.520617317250001,1.5212939529549998,6.328869049050001
1.7178487298107996e+18,-5.9127344054,2.73469317615,7.5744363784000015
1.7178487300107996e+18,-6.97851809695,3.0377828979,8.356799445999998
1.7178487302107996e+18,-4.473544715849999,3.2887210694,6.596198135500001
1.7178487304107996e+18,-4.986228584250001,4.99613049315,5.38663842785
1.7178487306107996e+18,-2.50392556,3.936528945849999,3.2289054566000006
1.7178487308107996e+18,-6.8149607163,2.1794902269049996,7.48647180165
1.7178487310107996e+18,-9.9526383815,0.27219396975000004,10.3950808176
1.7178487312107996e+18,-7.5591830978,1.44137514499,7.7517127303999995
1.7178487314107996e+18,-5.48974401865,2.4216192169263,5.887571731499999
1.7178487316107996e+18,-6.9993772201499995,1.7896259537250003,6.98225283055
1.7178487318107996e+18,-7.566061294550001,3.4033751449,8.1960262755
1.7178487320107996e+18,-5.2713556594,3.0480440597499996,7.2966665037
1.7178487322107996e+18,-4.153622497550001,4.34173631285,4.18996691885
1.7178487324107996e+18,-3.6996465453999994,4.1219408798499995,2.4937167893299996
1.7178487326107996e+18,-7.62224695585,3.2975826415999996,7.6840010376
1.7178487328107996e+18,-10.364828727749998,1.62679456332,10.6149735489
1.7178487330107996e+18,-3.403801757756,1.1295810241945001,7.656780142760001
1.7178487332107996e+18,-6.53829853815,1.704078849665,6.889483245950001
1.7178487334107996e+18,-7.9133615799999975,2.1783226546999996,6.45532608045
1.7178487336107996e+18,-6.6095204315,1.7675768051949998,6.99169818875
1.7178487338107996e+18,-8.1051128312,3.0335242538155,6.55917263035
1.7178487340107996e+18,-6.687373535250001,2.7817777633,8.2891027221
1.7178487342107996e+18,1.2614418181895,3.6174000777150006,6.384036827050001
1.7178487344107996e+18,2.793543296829,4.4590024566499995,9.08660680385
1.7178487346107996e+18,2.1967792741,4.8497723466,7.6950106429
1.7178487348107996e+18,2.402967289476191,4.342234562333333,8.598761640190475
1.7178487350107996e+18,3.2882121277000005,4.592876563949999,7.928203216599999
1.7178487352107996e+18,3.2834595106999998,4.61046498875,8.11443843835
1.7178487354107996e+18,3.417760231,4.34744693755,8.074958038299998
1.7178487356107996e+18,3.2347283478499995,4.51191741945,8.031922531050002
1.7178487358107996e+18,3.41642051695,4.41619896705,8.13737075045
1.7178487360107996e+18,3.2717837907000002,4.1089628677,8.037281387399998
1.7178487362107996e+18,3.5547403794000005,4.4698024979,8.029415245150002
1.7178487364107996e+18,4.5529545822,3.5272949523,7.987322776849998
1.7178487366107996e+18,5.6981032333,2.3892116089124995,7.2724169312
1.7178487368107996e+18,6.7481321868999995,3.95763505555,7.063833183350001
1.7178487370107996e+18,5.258018394049999,1.720305107315,6.914788124349999
1.7178487372107996e+18,5.9480310059,5.1884281083,7.405819519049999
1.7178487374107996e+18,5.1618583603,4.6842615280499995,6.744053169149998
1.7178487376107996e+18,5.127070701500001,4.3561139144,7.197879432699999
1.7178487378107996e+18,4.59981463628,5.152585144100001,7.79506258375
1.7178487380107996e+18,4.43543396745,6.2589569323,9.023625274249998
1.7178487382107996e+18,3.1385009536600004,4.268254119849999,10.325797394199999
1.7178487384107996e+18,2.4862697755000003,5.46659465785,3.2589554671785
1.7178487386107996e+18,7.237457130199999,8.220956931649999,2.39878420262
1.7178487388107996e+18,6.46667996965,10.362276535949999,5.27110867305
1.7178487390107996e+18,1.713007782,7.59434497815,6.653394195450001
1.7178487392107996e+18,2.8086319198500007,5.3158656006,8.15394877585
1.7178487394107996e+18,4.135817024150001,4.08252783965,8.9481821593
1.7178487396107996e+18,3.5752552185500006,4.242679802,7.9278215102499985
1.7178487398107996e+18,3.4274151535499997,4.4365266952,7.974621688849998
1.7178487400107996e+18,3.5384317932,4.404508277850001,7.996476242049999
1.7178487402107996e+18,2.3079942511250002,4.667743377625,7.74762622825
1.7178487404107996e+18,,,
