Timestamps,Acc_X,Acc_Y,Acc_Z,Label,Set_Time
1.7177641718391163e+18,0.5377745492238096,2.554445146809524,9.53441593709524,1,10600000000.0
1.7177641720391163e+18,0.497206054685,2.6912909318,9.44134661855,1,10600000000.0
1.7177641722391163e+18,0.5307812347395001,2.716408699,9.349400321999996,1,10600000000.0
1.7177641724391163e+18,0.1901944885245,3.1568827286000003,8.95994769285,1,10600000000.0
1.7177641726391163e+18,0.4027674407965499,3.51894980615,8.14106057735,1,10600000000.0
1.7177641728391163e+18,0.17619859314414,1.384702995365,9.687696829650005,1,10600000000.0
1.7177641730391163e+18,-0.451618354789,0.48889833067225,9.2976753845,1,10600000000.0
1.7177641732391163e+18,-0.2075042070604762,-0.6920893641833334,10.05643040347619,1,10600000000.0
1.7177641734391163e+18,-0.6995028763105,-2.4929009856,10.825630485,1,10600000000.0
1.7177641736391163e+18,-0.2556309127815,-2.6875786515,10.7954607239,1,10600000000.0
1.7177641738391163e+18,-0.6793023834545001,-1.4367273102150002,9.70048024735,1,10600000000.0
1.7177641740391163e+18,0.516411117562,-0.312662315336,10.2268007576,1,10600000000.0
1.7177641742391163e+18,0.0823737030015,1.3831237792600002,8.822406211799997,1,10600000000.0
1.7177641744391163e+18,-0.0487910385088,2.938554245,8.394483581699998,1,10600000000.0
1.7177641746391163e+18,-0.2722766549259524,2.873225097619048,8.667112361333333,1,10600000000.0
1.7177641748391163e+18,0.061432250974,1.592845161395,9.19017643015,1,10600000000.0
1.7177641750391163e+18,-0.0808543624831,0.16058605958025,9.3178908459,1,10600000000.0
1.7177641752391163e+18,-0.016877403258,-1.6624953231200004,10.34991973065,1,10600000000.0
1.7177641754391163e+18,0.65364573669,-2.97842383565,11.2811033255,1,10600000000.0
1.7177641756391163e+18,0.4357588348453,-2.16323403165,10.4588332451,1,10600000000.0
1.7177641758391163e+18,-0.3008219375405,-0.7663987655799998,9.71140004,1,10600000000.0
1.7177641760391163e+18,-0.3937037887705,0.6234310684050001,9.467991211,1,10600000000.0
1.7177641762391163e+18,-0.2751349967014286,2.24073322847619,8.913222002380953,1,10600000000.0
1.7177641764391163e+18,-0.9491462403,3.1475496368,7.999477500850001,1,10600000000.0
1.7177641766391163e+18,-0.927201873715,2.1313278809,8.911710502500002,1,10600000000.0
1.7177641768391163e+18,-0.7510257338999999,0.4228781204899999,9.15030683875,1,10600000000.0
1.7177641770391163e+18,-0.8479267272700002,-1.414925148035,9.607778022300002,1,10600000000.0
1.7177641772391163e+18,-0.25584047698,-3.03135376735,10.6222559045,1,10600000000.0
1.7177641774391163e+18,-0.1110765152003,-3.98912207785,10.72307125775,1,10600000000.0
1.7177641776391163e+18,-0.2890916878776191,-2.8089516120904765,9.81993647952381,1,10600000000.0
1.7177641778391163e+18,-1.30209727472,-1.0271041259550002,9.8840135884,1,10600000000.0
1.7177641780391163e+18,-1.69893704231,0.2334694976529999,9.1730670088,1,10600000000.0
1.7177641782391163e+18,-0.8943302306899998,0.826356582665,9.48446445455,1,10600000000.0
1.7177641784391163e+18,-0.7906408538829501,2.9752504349,8.183018325900001,1,10600000000.0
1.7177641786391163e+18,-0.643100166343,2.4174878081,8.615573822,1,10600000000.0
1.7177641788391163e+18,-1.40679705059,0.998708175577,9.10340936275,1,10600000000.0
1.7177641790391163e+18,-1.1451400975,-0.8838334873228572,9.936116310571428,1,10600000000.0
1.7177641792391163e+18,-1.592081749,-1.9512373810000003,9.89325686675,1,10600000000.0
1.7177641794391163e+18,-0.91026459507014,-3.2966396027,10.756451843,1,10600000000.0
1.7177641796391163e+18,-1.0038724365299998,-2.8052863769,10.5569616845,1,10600000000.0
1.7177641798391163e+18,-1.37081936648965,-1.149018104545,9.66299819175,1,10600000000.0
1.7177641800391163e+18,-0.944086761338,0.3571872253353,9.096381477299998,1,10600000000.0
1.7177641802391163e+18,-1.222043746995,1.9163224869,9.0807988816,1,10600000000.0
1.7177641804391163e+18,-1.2719349976349998,3.0099183426,8.2062425308,1,10600000000.0
1.7177641806391163e+18,-0.8375155204285715,2.325620989142857,8.528415069523808,1,10600000000.0
1.7177641808391163e+18,-1.36343971249,-0.092313034142,9.5704905623,1,10600000000.0
1.7177641810391163e+18,-1.5668741684,-1.247438438445,9.759345336950002,1,10600000000.0
1.7177641812391163e+18,-1.87743335705,-2.4383244782,10.1282157667,1,10600000000.0
1.7177641814391163e+18,-0.9649907913949998,-3.48250060265,10.4030442581,1,10600000000.0
1.7177641816391163e+18,-1.1164458389050005,-2.6464591598,10.681143448450005,1,10600000000.0
1.7177641818391163e+18,-1.05131627658,-1.5026502227149998,9.500683227700002,1,10600000000.0
1.7177641820391163e+18,-0.6361129106166666,0.1565102495433666,9.215578962095238,1,10600000000.0
1.7177641822391163e+18,-0.3892505493129999,1.4762825546,9.21414907855,1,10600000000.0
1.7177641824391163e+18,-0.3121907959035,2.96076805115,8.22293282325,1,10600000000.0
1.7177641826391163e+18,-0.666586326625,1.91868756859,8.761759826650003,2,10600000000.0
1.7177641828391163e+18,-1.4160627822099998,0.275427246096,9.2774898605,2,10600000000.0
1.7177641830391163e+18,-1.44471320347,-1.30655051424,9.8553407138,2,10600000000.0
1.7177641832391163e+18,-1.85700084685,-2.4491993637,10.32552795455,2,10600000000.0
1.7177641834391163e+18,-1.525058624225,-2.886080864,10.8809928595,2,10600000000.0
1.7177641836391163e+18,-1.8928566414761907,-2.0051873342714286,9.685573032714286,2,10600000000.0
1.7177641838391163e+18,-2.4894955673,-0.6742803268249999,9.9039446409,2,10600000000.0
1.7177641840391163e+18,-1.5976651382649998,0.2912493438885,9.06943750775,2,10600000000.0
1.7177641842391163e+18,-0.908386001665,1.972246192895,8.920616981399998,2,10600000000.0
1.7177641844391163e+18,-0.93394535066,2.52920798495,8.2351773605,2,10600000000.0
1.7177641846391163e+18,-1.3739852827749997,1.3003234634799998,9.0117250214,2,10600000000.0
1.7177641848391163e+18,-1.560931526215,-0.1884356460775,9.42359353645,2,10600000000.0
1.7177641850391163e+18,-1.892507367809524,-1.6509739249333333,9.65153666909524,2,10600000000.0
1.7177641852391163e+18,-1.7444573822150002,-3.19263587945,10.709067878,2,10600000000.0
1.7177641854391163e+18,-2.11340265655,-3.1813867721000006,10.259455353499998,2,10600000000.0
1.7177641856391163e+18,-2.047696792612,-1.97264286815,9.8856451949,2,10600000000.0
1.7177641858391163e+18,-1.21398300935925,-0.9510547713750004,9.7437926788,2,10600000000.0
1.7177641860391163e+18,-0.7900196456899999,0.7834557953340001,9.027113021900002,2,10600000000.0
1.7177641862391163e+18,-0.9005497971299998,2.2876029053000004,8.566401077200002,2,10600000000.0
1.7177641864391163e+18,-0.7869563729571428,2.750480346619048,8.428815045999999,2,10600000000.0
1.7177641866391163e+18,-0.7552694091950001,1.523052795465,8.860449600149998,2,10600000000.0
1.7177641868391163e+18,-0.825218948385,-0.434920578007,9.37390436565,2,10600000000.0
1.7177641870391163e+18,-1.01853444667,-2.2444326781,10.51402347615,2,10600000000.0
1.7177641872391163e+18,-1.0138117676845,-3.8423672561,11.210555031,2,10600000000.0
1.7177641874391163e+18,-1.3735212478689998,-2.32436645506,10.207446006999998,2,10600000000.0
1.7177641876391163e+18,-1.05886058815,-0.953801559468,9.4070978395,2,10600000000.0
1.7177641878391163e+18,-1.2176129607675,-0.3047737197845001,9.48135092955,2,10600000000.0
1.7177641880391163e+18,-1.033058885895238,1.5375740269285716,8.782087554952382,2,10600000000.0
1.7177641882391163e+18,-0.6438037033765,2.77990665445,8.4408346939,2,10600000000.0
1.7177641884391163e+18,-0.848473091115,1.67093028253,8.6852239838,2,10600000000.0
1.7177641886391163e+18,-0.97802119449,-0.475650878927,9.715808372,2,10600000000.0
1.7177641888391163e+18,-1.10336304476,-1.8600021057,9.8152914964,2,10600000000.0
1.7177641890391163e+18,-1.320845787055,-3.1613883591,11.297209831,2,10600000000.0
1.7177641892391163e+18,-1.172661437936,-2.7104286347000004,10.1384844131,2,10600000000.0
1.7177641894391163e+18,-1.0332085745161903,-1.247156524595238,10.12644908295238,2,10600000000.0
1.7177641896391163e+18,-1.044161155745,0.15017520904865,9.3447450029,2,10600000000.0
1.7177641898391163e+18,-0.9874216460499998,1.64809526829,8.7159625625,2,10600000000.0
1.7177641900391163e+18,-0.5738915862720001,2.870438392750001,8.39119791415,2,10600000000.0
1.7177641902391163e+18,-0.368316581721,1.9604956283000003,8.6204611587,2,10600000000.0
1.7177641904391163e+18,-0.8945622482120001,-0.07791297919,9.41574236325,2,10600000000.0
1.7177641906391163e+18,-1.3780643005204998,-1.5844925309,9.9485069734,2,10600000000.0
1.7177641908391163e+18,-1.3371835981290476,-2.9553685650952377,11.00063834047619,2,10600000000.0
1.7177641910391163e+18,-1.837024887105,-2.5242832259,10.311232681400002,2,10600000000.0
1.7177641912391163e+18,-2.1847143631,-1.545244148185,9.5344829406,2,10600000000.0
1.7177641914391163e+18,-1.7498087539899998,0.12031230924,9.8122378467,2,10600000000.0
1.7177641916391163e+18,-1.3658272475850004,1.06541695403,8.7183500977,2,10600000000.0
1.7177641918391163e+18,-1.389171203625,3.21042638405,8.06219707475,2,10600000000.0
1.7177641920391163e+18,-1.6604071655,1.99591197975,8.4486708983,2,10600000000.0
1.7177641922391163e+18,-1.88864504245,0.09787397001,9.338720031650002,2,10600000000.0
1.7177641924391163e+18,-1.4187639508809524,-1.5289633615333331,9.619446258761904,2,10600000000.0
1.7177641926391163e+18,-1.083409538237,-3.23870258335,11.277248841,2,10600000000.0
1.7177641928391163e+18,-1.2609927521344502,-3.47715671535,10.377791770200002,2,10600000000.0
1.7177641930391163e+18,-1.778114890945,-1.1711346130885,9.9850759282,2,10600000000.0
1.7177641932391163e+18,-1.191260261554,-0.026936485297,9.076682442,2,10600000000.0
1.7177641934391163e+18,-0.531582069339,0.735151245153,9.23006847315,3,10600000000.0
1.7177641936391163e+18,-0.2431244201669,2.972129425,8.169396652100001,3,10600000000.0
1.7177641938391163e+18,-0.2133705793547619,1.6830144391190474,8.877795671761906,3,10600000000.0
1.7177641940391163e+18,-0.94881692504,0.0814531173719,9.26401787575,3,10600000000.0
1.7177641942391163e+18,-0.9911938018315,-1.7401987381,10.0268016588,3,10600000000.0
1.7177641944391163e+18,-1.2331731032349995,-2.81577207175,10.4184921341,3,10600000000.0
1.7177641946391163e+18,-1.5596142655,-3.1601683961000004,10.7579038233,3,10600000000.0
1.7177641948391163e+18,-1.6161816329799996,-1.6845818939999997,9.753559867099998,3,10600000000.0
1.7177641950391163e+18,-2.32027246855,-0.5987399139459998,9.5195440063,3,10600000000.0
1.7177641952391163e+18,-1.3947620773750002,-0.0181497573624999,9.41458227525,3,10600000000.0
1.7177641954391163e+18,-0.8307866559495236,2.516281651,8.43813851495238,3,10600000000.0
1.7177641956391163e+18,-0.55048775484,2.312211731,8.171192916799999,3,10600000000.0
1.7177641958391163e+18,-0.4726196823195,0.04438270573,9.15086068725,3,10600000000.0
1.7177641960391163e+18,-0.8046367492750001,-1.9658470001,9.88541317695,3,10600000000.0
1.7177641962391163e+18,-0.774496925335,-3.23519238275,10.7306978985,3,10600000000.0
1.7177641964391163e+18,-1.1221115569350002,-3.007485901,10.4464090796,3,10600000000.0
1.7177641966391163e+18,-0.7872129822039999,-1.9436930694255,10.41073825895,3,10600000000.0
1.7177641968391163e+18,-1.0900190081233332,-0.3705437360071428,8.970517142142858,3,10600000000.0
1.7177641970391163e+18,-1.223593025175,0.4417613525648,9.775055168,3,10600000000.0
1.7177641972391163e+18,-1.5644043045000002,1.597777404785,8.941603340350001,3,10600000000.0
1.7177641974391163e+18,-1.156367820645,3.10282264705,8.4223556215,3,10600000000.0
1.7177641976391163e+18,-1.0335332564700002,2.3366334457,8.05918833165,3,10600000000.0
1.7177641978391163e+18,-1.347467926015,0.4362153854650001,9.555821067699998,3,10600000000.0
1.7177641980391163e+18,-1.89835235605,-1.63249770365,9.6466596685,3,10600000000.0
1.7177641982391163e+18,-2.004873700780952,-2.9809724645238096,10.878542240476191,3,10600000000.0
1.7177641984391163e+18,-1.94295211031,-3.2454310913,10.42194994325,3,10600000000.0
1.7177641986391163e+18,-1.938775795015,-1.74461455535,9.8847770009,3,10600000000.0
1.7177641988391163e+18,-1.4531406783349998,-0.5288203124980999,9.15714012945,3,10600000000.0
1.7177641990391163e+18,-1.4546675034749998,0.792017990155,9.415098701799998,3,10600000000.0
1.7177641992391163e+18,-1.0591524810435,1.6361725616399998,8.9030360413,3,10600000000.0
1.7177641994391163e+18,-0.8903260574,2.5485103453500004,8.952979682949998,3,10600000000.0
1.7177641996391163e+18,-0.8148530044844999,2.0511396332,8.07977801515,3,10600000000.0
1.7177641998391163e+18,-1.1184598650095237,0.0774389647958571,9.46957220904762,3,10600000000.0
1.7177642000391163e+18,-1.9400481491500003,-1.682456313905,9.9984730684,3,10600000000.0
1.7177642002391163e+18,-1.86863166045,-2.77977941895,10.8862768705,3,10600000000.0
1.7177642004391163e+18,-1.490600280785,-3.6388130493,10.562118461599995,3,10600000000.0
1.7177642006391163e+18,-1.2585977325299995,-1.43481129451,9.5802876894,3,10600000000.0
1.7177642008391163e+18,-1.021992256185,-0.8432564392819998,9.42155028535,3,10600000000.0
1.7177642010391163e+18,-1.0526634749945,0.5626200255939999,9.2287811508,3,10600000000.0
1.7177642012391163e+18,-0.8209285844857144,1.7205577959380955,8.38935424795238,3,10600000000.0
1.7177642014391163e+18,-1.3456641770800002,1.7050892486799998,9.0177275392,3,10600000000.0
1.7177642016391163e+18,-1.4695764999999998,-0.0423319702139999,9.41610910055,3,10600000000.0
1.7177642018391163e+18,-1.88710324855,-0.4914729766989999,8.995139511149999,3,10600000000.0
1.7177642020391163e+18,-2.01964512642,-1.6624579010449998,10.34807856025,3,10600000000.0
1.7177642022391163e+18,-1.83076041415,-1.9629056167,9.50150651545,3,10600000000.0
1.7177642024391163e+18,-2.099152290235,-1.9816915512175,10.375119826550002,3,10600000000.0
1.7177642026391163e+18,-0.5231692068964762,-2.124724469857143,9.597727138761902,3,10600000000.0
1.7177642028391163e+18,-0.96369598383,-1.0065892868300002,9.6689857406,3,10600000000.0
1.7177642030391163e+18,-0.591300384515,-0.8743842086399999,9.79734381865,3,10600000000.0
1.7177642032391163e+18,-0.65809897614,-0.8135581970299999,9.617926917999998,3,10600000000.0
1.7177642034391163e+18,-0.61675495148,-0.912322814935,9.7720688782,3,10600000000.0
1.7177642036391163e+18,-0.7705301742599999,-0.930532447815,9.7281277543,3,10600000000.0
1.7177642038391163e+18,-0.7581848848615385,-1.035132047146154,9.732058234384615,3,10600000000.0
1.7177642040391163e+18,,,,3,10600000000.0
