Timestamps,Gyro_X,Gyro_Y,Gyro_Z,Label,Set_Time
1.7177641718428396e+18,0.0242560641134285,0.0251362574214285,0.0220200377404761,1,10600000000.0
1.7177641720428396e+18,0.029036179126315,0.033810542431,0.02194806800731,1,10600000000.0
1.7177641722428396e+18,0.0382065187281499,0.053144445456,0.0036099067191,1,10600000000.0
1.7177641724428396e+18,-0.0487814657838,0.0127404689095,-0.00842540409665,1,10600000000.0
1.7177641726428396e+18,-0.41393269151,0.0183360467890499,0.00635635728384,1,10600000000.0
1.7177641728428396e+18,-0.48179208637,0.20115338825,0.0525030914056499,1,10600000000.0
1.7177641730428396e+18,-0.57786621749,0.1440318603024999,0.1010870609483,1,10600000000.0
1.7177641732428396e+18,-0.4879394457428571,-0.0144158577401761,-0.0145376757939047,1,10600000000.0
1.7177641734428396e+18,-0.3059468138757,0.04393131561584,-0.0327894687647499,1,10600000000.0
1.7177641736428396e+18,0.1489392418209,0.0281052261595,-0.0382159454962,1,10600000000.0
1.7177641738428396e+18,0.504170184595,-0.2837800900742,-0.1362474968036,1,10600000000.0
1.7177641740428396e+18,0.566015408935,0.0517069957212499,-0.01028872570305,1,10600000000.0
1.7177641742428396e+18,0.5371137887199999,0.06916761803655,0.02542854894608,1,10600000000.0
1.7177641744428396e+18,0.1635452334729999,0.00712223587475,0.0097124543095,1,10600000000.0
1.7177641746428396e+18,-0.1823022142000476,0.0050625338919047,-0.0106622111123809,1,10600000000.0
1.7177641748428396e+18,-0.49890586286,-0.07228856905135,-0.03498608038125,1,10600000000.0
1.7177641750428396e+18,-0.62448486686,0.00202892393615,0.0036768557734849,1,10600000000.0
1.7177641752428396e+18,-0.5777920693199999,-0.0916075143945,-0.02003326941105,1,10600000000.0
1.7177641754428396e+18,-0.028780159264,-0.00748293651226,-0.0244531026791499,1,10600000000.0
1.7177641756428396e+18,0.37882371471,0.0591632912633,0.0159075352683999,1,10600000000.0
1.7177641758428396e+18,0.5573580250150001,0.1825707566099999,0.0666825794867,1,10600000000.0
1.7177641760428396e+18,0.5950513988699999,0.17645816742965,0.091285350784525,1,10600000000.0
1.7177641762428396e+18,0.4193844809428572,0.0363626387517142,-0.0655159132015238,1,10600000000.0
1.7177641764428396e+18,-0.1688990925432,0.0013826609149499,-0.0030927091485599,1,10600000000.0
1.7177641766428396e+18,-0.4108681857599999,0.0928175851735,0.0629323227299999,1,10600000000.0
1.7177641768428396e+18,-0.7815862983449999,-0.0330154916384,-0.00556815785265,1,10600000000.0
1.7177641770428396e+18,-0.7166839629299999,-0.086019577647,-0.049442882976,1,10600000000.0
1.7177641772428396e+18,-0.389013082535,-0.1718205183785,-0.07423336707165,1,10600000000.0
1.7177641774428396e+18,0.026336117362,-0.0511953560628999,-0.0341020146857,1,10600000000.0
1.7177641776428396e+18,0.4554962161000001,0.3851228150580952,0.2771099743724286,1,10600000000.0
1.7177641778428396e+18,0.588678662475,0.16437363808285,0.1734974808915,1,10600000000.0
1.7177641780428396e+18,0.538474717735,-0.02703235009165,0.082620243823795,1,10600000000.0
1.7177641782428396e+18,0.5137477517150001,-0.129458781329,0.0027890412955749,1,10600000000.0
1.7177641784428396e+18,0.11877143857875,-0.044623343041,0.0091792367745399,1,10600000000.0
1.7177641786428396e+18,-0.312332925205,0.1353365676089999,0.0361930581961999,1,10600000000.0
1.7177641788428396e+18,-0.59574323594,0.0470796339259999,-0.087113573635,1,10600000000.0
1.7177641790428396e+18,-0.5603317419619048,-0.0098774849579523,-0.1488378394909033,1,10600000000.0
1.7177641792428396e+18,-0.4841551572049999,-0.1176902776539499,-0.1283556276819999,1,10600000000.0
1.7177641794428396e+18,-0.2026031600212,-0.14563591723435,0.0736303992224,1,10600000000.0
1.7177641796428396e+18,0.4941303458050001,0.2013599455325,0.1366521834113999,1,10600000000.0
1.7177641798428396e+18,0.7287586689,-0.0279556276216999,0.0749054843061999,1,10600000000.0
1.7177641800428396e+18,0.58197333814,0.099649725666,0.0837242066835,1,10600000000.0
1.7177641802428396e+18,0.45567268282,0.0331717426965,0.0967649486736,1,10600000000.0
1.7177641804428396e+18,-0.0613351001392,-0.0203715689762449,0.0069536017727,1,10600000000.0
1.7177641806428396e+18,-0.4679429658761904,-0.075755753691238,-0.1430218652609523,1,10600000000.0
1.7177641808428396e+18,-0.74392237664,0.1205536236076,-0.0558699843236,1,10600000000.0
1.7177641810428396e+18,-0.5896460562950001,0.02560012130775,-0.1426518442054999,1,10600000000.0
1.7177641812428396e+18,-0.2478098731455,-0.08330567473425,-0.0800719641185,1,10600000000.0
1.7177641814428396e+18,-0.00136250784335,-0.2393582686749999,-0.158493095261,1,10600000000.0
1.7177641816428396e+18,0.242331000425,0.11957579329585,0.1514793743437499,1,10600000000.0
1.7177641818428396e+18,0.644147752235,-0.027758901191,0.0920316369732999,1,10600000000.0
1.7177641820428396e+18,0.5902591347666668,-0.1851735638371428,-0.0882414630780952,1,10600000000.0
1.7177641822428396e+18,0.5299453213850001,-0.0922920768649999,-0.116918335855,1,10600000000.0
1.7177641824428396e+18,-0.1038291795415999,0.0123142478484999,-0.0058980660519499,1,10600000000.0
1.7177641826428396e+18,-0.419984885305,0.206479109085,0.0616811418985,2,10600000000.0
1.7177641828428396e+18,-0.593157374855,0.32598278374,0.09302108953925,2,10600000000.0
1.7177641830428396e+18,-0.5018256858,0.0177894414628,-0.0797346305084999,2,10600000000.0
1.7177641832428396e+18,-0.3206318097235,-0.1108162121116849,-0.1205922619519999,2,10600000000.0
1.7177641834428396e+18,0.1417833867965,0.09421999090815,0.0610558523937,2,10600000000.0
1.7177641836428396e+18,0.3277445236904762,0.3521967107990476,0.3368276953714285,2,10600000000.0
1.7177641838428396e+18,0.505060870935,-0.222167411063,0.07571595376,2,10600000000.0
1.7177641840428396e+18,0.585934099555,-0.34846392423,-0.140815883496,2,10600000000.0
1.7177641842428396e+18,0.2080119295019999,0.02216628547735,-1.9757627499993048e-05,2,10600000000.0
1.7177641844428396e+18,-0.204103782268385,0.0198612478772,-0.007160158187,2,10600000000.0
1.7177641846428396e+18,-0.41013095081,0.1555441580795,0.02500733323275,2,10600000000.0
1.7177641848428396e+18,-0.57356221973,0.07085563093505,-0.0858832188905,2,10600000000.0
1.7177641850428396e+18,-0.5635325880285714,-0.0223501343449523,-0.1412809022738095,2,10600000000.0
1.7177641852428396e+18,-0.2436771498065,-0.072178238445,-0.1552805564419999,2,10600000000.0
1.7177641854428396e+18,0.2700835567815,0.1879421789185,0.1635104408545,2,10600000000.0
1.7177641856428396e+18,0.4409054845600001,-0.048709590318305,0.1468757631185,2,10600000000.0
1.7177641858428396e+18,0.591591010985,-0.371306407445,-0.086142756238,2,10600000000.0
1.7177641860428396e+18,0.64388470202,-0.0357940556385,0.0251975558748499,2,10600000000.0
1.7177641862428396e+18,0.18825761708305,-0.0961251692421,-0.049832349735,2,10600000000.0
1.7177641864428396e+18,-0.1894811053028571,-0.0538568598264285,-0.0701599280757142,2,10600000000.0
1.7177641866428396e+18,-0.4895306333849999,0.0028818044002299,-0.0206336591385,2,10600000000.0
1.7177641868428396e+18,-0.7300347417499999,0.0492131318718,-0.00974967294295,2,10600000000.0
1.7177641870428396e+18,-0.494285807765,0.0341115614750749,0.00332772544265,2,10600000000.0
1.7177641872428396e+18,-0.0782499006055,0.03266584309815,0.0365112547023,2,10600000000.0
1.7177641874428396e+18,0.417996164415,0.11226487281,0.1230963497375,2,10600000000.0
1.7177641876428396e+18,0.4988868311,0.0034880180991999,0.1072162204415,2,10600000000.0
1.7177641878428396e+18,0.5041609391499999,-0.0732222444479499,0.013618927589,2,10600000000.0
1.7177641880428396e+18,0.4482992759761905,-0.1333544786093809,-0.0250822574436666,2,10600000000.0
1.7177641882428396e+18,-0.150809555682,0.0434365910471,-0.0374100039250499,2,10600000000.0
1.7177641884428396e+18,-0.4898752972449999,-0.02328609680005,-0.1033456275245,2,10600000000.0
1.7177641886428396e+18,-0.593289771665,-0.0172348264634999,-0.06771830778875,2,10600000000.0
1.7177641888428396e+18,-0.5205295309499999,0.0467237927856,0.0065602683006,2,10600000000.0
1.7177641890428396e+18,-0.0821750605049499,0.0068855720569,0.05177497649585,2,10600000000.0
1.7177641892428396e+18,0.330924456936,0.056691533987,0.0467091333099999,2,10600000000.0
1.7177641894428396e+18,0.5141660301428571,-0.0595023888819047,0.0174857674268095,2,10600000000.0
1.7177641896428396e+18,0.581034086645,-0.0244666322674999,-0.0614790266465,2,10600000000.0
1.7177641898428396e+18,0.5458137750600001,-0.0446937310911249,0.092432349219755,2,10600000000.0
1.7177641900428396e+18,-0.1690734071664999,0.0369988144379,0.1084117364645,2,10600000000.0
1.7177641902428396e+18,-0.43508005589,-0.0366223209469,-0.107961530759595,2,10600000000.0
1.7177641904428396e+18,-0.64241149128,0.06850369399435,-0.121745382995,2,10600000000.0
1.7177641906428396e+18,-0.5761114954950001,0.052038721643,-0.05904465010765,2,10600000000.0
1.7177641908428396e+18,-0.1703746449231428,0.1034932596853809,-0.0182228457698761,2,10600000000.0
1.7177641910428396e+18,0.2139046236955,0.2840562894985,0.1449382039689999,2,10600000000.0
1.7177641912428396e+18,0.56391870679,0.0132213075561999,0.169632381937,2,10600000000.0
1.7177641914428396e+18,0.6338409751599999,-0.1036318497699999,0.01184833478115,2,10600000000.0
1.7177641916428396e+18,0.515057069065,0.0559629329287,0.126810531369,2,10600000000.0
1.7177641918428396e+18,-0.075162721053,-0.0324096435225,-0.00646600490415,2,10600000000.0
1.7177641920428396e+18,-0.4518842995200001,0.0162846608302499,-0.108247904107,2,10600000000.0
1.7177641922428396e+18,-0.6536057323150002,-0.1237368613455,-0.1504135582584999,2,10600000000.0
1.7177641924428396e+18,-0.590454016409524,-0.17986581616,-0.0999286710533333,2,10600000000.0
1.7177641926428396e+18,-0.261335888494,-0.0449848935448499,-0.0276087461096,2,10600000000.0
1.7177641928428396e+18,0.240558763038,0.1557453662245,0.0711813584786999,2,10600000000.0
1.7177641930428396e+18,0.59217775763,-0.0194329343729999,0.0885906879815,2,10600000000.0
1.7177641932428396e+18,0.6066186696350001,-0.18119693557,-0.02014322056305,2,10600000000.0
1.7177641934428396e+18,0.554648375515,-0.383792116495,-0.2539969734955,3,10600000000.0
1.7177641936428396e+18,-0.0701791458785,-0.0729608237335499,-0.05473711895795,3,10600000000.0
1.7177641938428396e+18,-0.4295848579619047,0.1917248914714285,0.049231577,3,10600000000.0
1.7177641940428396e+18,-0.605636465555,0.157405662529,0.0233787296824,3,10600000000.0
1.7177641942428396e+18,-0.63838637919,0.080326754111558,-0.0019309666713,3,10600000000.0
1.7177641944428396e+18,-0.2357218121345,0.05168347880068,0.0006314728412499,3,10600000000.0
1.7177641946428396e+18,0.221272284351,0.127192561699,0.100091436042,3,10600000000.0
1.7177641948428396e+18,0.461802363405,0.2400261630259999,0.216270895299,3,10600000000.0
1.7177641950428396e+18,0.41904216706,-0.08551756410367,0.099035852633,3,10600000000.0
1.7177641952428396e+18,0.5485299557400001,-0.2080515069955,0.07006998774345,3,10600000000.0
1.7177641954428396e+18,0.2969873580347619,-0.2691998786857143,0.0148284805593333,3,10600000000.0
1.7177641956428396e+18,-0.4406877040849999,-0.03114084188096,-0.1141166940784999,3,10600000000.0
1.7177641958428396e+18,-0.8221292048650002,-0.05209482923705,-0.105301992081,3,10600000000.0
1.7177641960428396e+18,-0.6390562817450001,0.0577670942076,-0.01767141108875,3,10600000000.0
1.7177641962428396e+18,-0.198493484644,-0.083295865632,-0.0901696230371,3,10600000000.0
1.7177641964428396e+18,0.251313646885,0.07877766011448,0.073428665291235,3,10600000000.0
1.7177641966428396e+18,0.6219744071500001,0.0700089643856,0.25120923854,3,10600000000.0
1.7177641968428396e+18,0.4835920376380952,0.1511173467635714,0.1469118776004762,3,10600000000.0
1.7177641970428396e+18,0.43547452241,0.2232023335035,0.1539920481163999,3,10600000000.0
1.7177641972428396e+18,0.4451514884799999,-0.1657871044245,-0.067116522213375,3,10600000000.0
1.7177641974428396e+18,-0.0507565419869,-0.0553997036059999,-0.0291641100825499,3,10600000000.0
1.7177641976428396e+18,-0.4233976453549999,0.1215384099615,-0.0258340755943,3,10600000000.0
1.7177641978428396e+18,-0.708003732565,0.0312471145286499,-0.1743999347049999,3,10600000000.0
1.7177641980428396e+18,-0.6995250686950001,-0.00251769428105,-0.1286787755685,3,10600000000.0
1.7177641982428396e+18,-0.2367186496714285,0.0639647204165238,0.0043958428725714,3,10600000000.0
1.7177641984428396e+18,0.144008220651,0.0533254822739999,0.00010646832895,3,10600000000.0
1.7177641986428396e+18,0.5508787900250001,-0.0844168986138499,0.0208823177878,3,10600000000.0
1.7177641988428396e+18,0.548892895885,-0.08062963704195,-0.0180402393093999,3,10600000000.0
1.7177641990428396e+18,0.4594289377299999,-0.05817883484945,0.07116677266204,3,10600000000.0
1.7177641992428396e+18,0.3635947420139999,-0.1490085794555,0.0164559867309,3,10600000000.0
1.7177641994428396e+18,-0.10126291659733,-0.018430502059,0.05108746476285,3,10600000000.0
1.7177641996428396e+18,-0.4594147935430001,0.0828020239063999,-0.0151960297829949,3,10600000000.0
1.7177641998428396e+18,-0.6193677187000001,0.1602540196741095,-0.0129826164011428,3,10600000000.0
1.7177642000428396e+18,-0.620623233925,0.01809945337855,-0.0972292968818,3,10600000000.0
1.7177642002428396e+18,-0.172243951259,-0.0706828071765,-0.03365719388235,3,10600000000.0
1.7177642004428396e+18,0.1536974174975,-0.1391735473564999,-0.12204979304,3,10600000000.0
1.7177642006428396e+18,0.409651493925,0.080592130262,0.1099262644323,3,10600000000.0
1.7177642008428396e+18,0.3537920073625001,0.0413812591397999,0.03316392646795,3,10600000000.0
1.7177642010428396e+18,0.538703002045,-0.079580061315,-0.0098234350789999,3,10600000000.0
1.7177642012428396e+18,0.1658416629871428,0.0195829021705238,0.0438931205750952,3,10600000000.0
1.7177642014428396e+18,-0.291237740975,0.101603902737,0.0433574375705999,3,10600000000.0
1.7177642016428396e+18,-0.321684894335,0.1359596109879999,-0.102508953675865,3,10600000000.0
1.7177642018428396e+18,-0.5016969084699999,0.0493731502296349,-0.1005846910835999,3,10600000000.0
1.7177642020428396e+18,-0.1813749393246999,0.14198329988,-0.0263498207156499,3,10600000000.0
1.7177642022428396e+18,-0.19804526183625,-0.120233601143,-0.1220218540695,3,10600000000.0
1.7177642024428396e+18,-0.0219031088572999,-0.31669830606,0.1087222943049999,3,10600000000.0
1.7177642026428396e+18,0.3929644869171428,-0.1558342013809523,0.0149392425242857,3,10600000000.0
1.7177642028428396e+18,0.09349319733867,-0.0938111469105,-0.03586858015055,3,10600000000.0
1.7177642030428396e+18,0.0474307059304999,-0.0224073837938,0.0109482604794,3,10600000000.0
1.7177642032428396e+18,-0.0103220268326499,0.01728055427116,-0.0003953740698434,3,10600000000.0
1.7177642034428396e+18,-0.02391992970345,0.0060670994105985,-0.026522171312,3,10600000000.0
1.7177642036428396e+18,-0.02331514101726,0.0027794145754,-0.00757308660565,3,10600000000.0
1.7177642038428396e+18,-0.0067284476867692,-0.0496936895027692,-0.0021321659269061,3,10600000000.0
1.7177642040428396e+18,,,,3,10600000000.0
