Timestamps,Acc_X,Acc_Y,Acc_Z,Label
1.7176155590780516e+18,-0.0967844499847619,0.1621057564809523,9.833137599285712,60s-1
1.7176155592780516e+18,-0.09425898743,0.161888351435,9.82847158805,60s-1
1.7176155594780516e+18,-0.0944386138935,0.1637220382649999,9.835372238199998,60s-1
1.7176155596780516e+18,-0.0659678192265,0.1238898697129999,9.83879262505,60s-1
1.7176155598780516e+18,-0.2547477493145,0.08076454923,9.830761825799998,60s-1
1.7176155600780516e+18,0.4536017303395001,-0.5340294800249998,9.8768809199,60s-1
1.7176155602780516e+18,-0.95222982792795,-1.201049903817,9.847878730499998,60s-1
1.7176155604780516e+18,0.5638100509015,-2.34750833129615,9.8013479918,60s-1
1.7176155606780516e+18,2.2080059279500004,-1.3733041992,9.88758366395,60s-1
1.7176155608780516e+18,1.5447352065836504,0.0346828765869999,9.8172673866,60s-1
1.7176155610780516e+18,-0.7406448211009999,0.2202744369115001,10.1614466631,60s-1
1.7176155612780516e+18,4.95962889865,1.8460062102850003,11.9523300022,60s-1
1.7176155614780516e+18,6.3522429428,6.5821797867,9.464645668149998,60s-1
1.7176155616780516e+18,11.49343677475,8.17115549485,1.62043279269,60s-1
1.7176155618780516e+18,10.951316619500002,0.47238766482,3.092778533995,60s-1
1.7176155620780516e+18,9.07698181925,5.902495696899999,7.465934509609999,60s-1
1.7176155622780516e+18,5.818250885,5.19773126215,2.9181591567000003,60s-1
1.7176155624780516e+18,8.9663094635,3.775231864895,2.5574243087850004,60s-1
1.7176155626780516e+18,9.9332013022,3.49796344768,3.943347267144,60s-1
1.7176155628780516e+18,7.30460000597,4.3289304428,1.005391777052,60s-1
1.7176155630780516e+18,9.17738552805,4.713795112634999,1.7775984649724996,60s-1
1.7176155632780516e+18,8.4577869418,2.52490443424,3.41713153832,60s-1
1.7176155634780516e+18,9.01795955655,3.1339653854,2.3581212615372,60s-1
1.7176155636780516e+18,9.2987606277,2.61061619565,2.7280769347,60s-1
1.7176155638780516e+18,8.779048873799999,2.310737297,3.165250328,60s-1
1.7176155640780516e+18,9.12699282075,2.6305247955000004,3.56415579985,60s-1
1.7176155642780516e+18,8.3452958678,2.3656506042500003,4.19195029445,60s-1
1.7176155644780516e+18,8.3390089415,1.4223646773999998,4.97823520665,60s-1
1.7176155646780516e+18,10.219189086749996,1.898045494,5.40502768705,60s-1
1.7176155648780516e+18,8.290307716800001,1.755504409765,6.129034607,60s-1
1.7176155650780516e+18,4.368665313750001,-0.3894975357,8.8317617568,60s-1
1.7176155652780516e+18,-0.9057814179285,-0.6102584609650001,7.19400249475,60s-1
1.7176155654780516e+18,1.355775650039,1.501677246087,9.802575439600002,60s-1
1.7176155656780516e+18,-0.683418823245,1.3580359496615,9.7050083313,60s-1
1.7176155658780516e+18,0.2293081512834999,4.1635917664,8.444472130000001,60s-1
1.7176155660780516e+18,3.871444290215,1.1789932708629998,9.1197329178,60s-1
1.7176155662780516e+18,-0.3098699079857145,0.9285476467642856,9.543475668904764,60s-1
1.7176155664780516e+18,2.70673132315,0.7422165526785001,9.1434735489,60s-1
1.7176155666780516e+18,1.822826911935,0.8234601058229997,7.6642945174,60s-1
1.7176155668780516e+18,1.020098693796,-1.2013792189714998,8.896786536849998,60s-1
1.7176155670780516e+18,0.177747871359,-3.7544924926,12.378658447,60s-1
1.7176155672780516e+18,0.1547257461594999,-4.26278299715,11.3292956087,60s-1
1.7176155674780516e+18,0.8048313446250001,-2.3205419082,10.5066438227,60s-1
1.7176155676780516e+18,0.963336730929,-1.079996635355,9.21358026095,60s-1
1.7176155678780516e+18,0.9805209961319996,2.665806427041,5.83049542225,60s-1
1.7176155680780516e+18,0.274334518438,0.8203615495000001,7.412368400700001,60s-1
1.7176155682780516e+18,0.4825739822424998,-3.2495175934,10.9669590901,60s-1
1.7176155684780516e+18,-0.2390753402462099,-4.747392746049999,12.0739670555,60s-1
1.7176155686780516e+18,-0.663098579465,-3.4305511321,10.43288470475,60s-1
1.7176155688780516e+18,0.4270244979555,-2.19160752874,10.475531021400002,60s-1
1.7176155690780516e+18,-0.5465659103055,-0.84697620385,9.28421088405,60s-1
1.7176155692780516e+18,0.674946441675,2.704688072275,6.097585006650001,60s-1
1.7176155694780516e+18,-0.2456990661655,0.5932463379025,7.08804533385,60s-1
1.7176155696780516e+18,0.0725990295499999,-3.164883590775,10.78359789245,60s-1
1.7176155698780516e+18,0.0298179932239999,-4.564428222550001,12.608752464999998,60s-1
1.7176155700780516e+18,-0.0666114807434999,-3.55759943385,10.800243278999998,60s-1
1.7176155702780516e+18,0.108891059885,-1.9840716019,9.56511673785,60s-1
1.7176155704780516e+18,0.115275283757,-0.810332405055,9.50366951755,60s-1
1.7176155706780516e+18,0.7602016524675,2.5616604995,6.00045199575,60s-1
1.7176155708780516e+18,-0.3076103210485,0.4780758361750001,7.5538616637499985,60s-1
1.7176155710780516e+18,-0.287926254253,-3.0600865173000003,10.79149397275,60s-1
1.7176155712780516e+18,0.16104261016893,-4.057686996349999,12.27078527,60s-1
1.7176155714780516e+18,0.305110519419,-3.32118106835,10.90578131085,60s-1
1.7176155716780516e+18,1.130329467801895,-2.36437825005,9.5724440005,60s-1
1.7176155718780516e+18,1.012067894085,-0.7988662490695,10.26871360085,60s-1
1.7176155720780516e+18,0.9329199828865,1.603974517791,6.71143599675,60s-1
1.7176155722780516e+18,0.0817674637179999,2.406844940147,5.9191111450000005,60s-1
1.7176155724780516e+18,0.2214569779039998,-2.24072788249,10.1677710116,60s-1
1.7176155726780516e+18,0.5806275787405,-3.97731163795,12.070322135500003,60s-1
1.7176155728780516e+18,-0.0501157836624999,-3.9010227814,12.126814659,60s-1
1.7176155730780516e+18,-0.3606974258535,-1.916816459685,9.34325559985,60s-1
1.7176155732780516e+18,0.0798514480625,-1.64491438291,9.92017089855,60s-1
1.7176155734780516e+18,0.4014651489085714,-0.4086787196380952,9.141639861619048,60s-1
1.7176155736780516e+18,0.758809547441,2.521723548845,6.310666900549999,60s-1
1.7176155738780516e+18,0.0657507705045,0.893394676228,7.666532363749999,60s-1
1.7176155740780516e+18,-0.133125663758,-2.7856247634,11.1098669135,60s-1
1.7176155742780516e+18,-0.1620305557495,-3.3859962844500004,12.1541328512,60s-1
1.7176155744780516e+18,-0.007559280452,-1.060679306035,9.5742028429,60s-1
1.7176155746780516e+18,-0.6097345505155,-1.10674600981325,9.6937517396,60s-1
1.7176155748780516e+18,0.54289105223355,-1.94980785375,9.68711304465,60s-1
1.7176155750780516e+18,-0.1285601577820999,-1.371485481215,9.64201931765,60s-1
1.7176155752780516e+18,-0.416097221375,-1.88098846435,9.61575643155,60s-1
1.7176155754780516e+18,-0.3284320220965,-1.57033197775,9.74636732475,60s-1
1.7176155756780516e+18,0.4459676055904999,-1.8236951065,9.85151616675,60s-1
1.7176155758780516e+18,0.0980461120626499,-1.276597801265,9.4724145125,60s-1
1.7176155760780516e+18,-0.430751747135,-1.63371766665,9.74094859315,60s-1
1.7176155762780516e+18,-0.311981231695,-1.5689548416,9.70598879245,60s-1
1.7176155764780516e+18,-0.12559632110375,-1.7203275604,9.7021642457,60s-1
1.7176155766780516e+18,-0.4708982620199999,-1.6909661178,9.740260025,60s-1
1.7176155768780516e+18,-0.4259317703199999,-1.6692313156,9.6932502823,60s-1
1.7176155770780516e+18,-0.04974904631927,-1.43670485685,9.7221925964,60s-1
1.7176155772780516e+18,-0.158617652896,-1.4271397475499998,9.69278624725,60s-1
1.7176155774780516e+18,-0.1040261764795,-1.138442596485,9.78575791145,60s-1
1.7176155776780516e+18,0.8328081665535001,-1.0027273177850002,9.7991176303,60s-1
1.7176155778780516e+18,-0.13360466766,-1.056660163825,9.64847090155,60s-1
1.7176155780780516e+18,-0.19489471435755,-0.84860032647,9.67176995095,60s-1
1.7176155782780516e+18,-0.1932182006787,-1.4116170272750002,9.71946826175,60s-1
1.7176155784780516e+18,-0.033852104186,-1.46564717085,9.7828389816,60s-1
1.7176155786780516e+18,-0.0210387496933999,-1.6229251098500002,9.70871312705,60s-1
1.7176155788780516e+18,0.0273481292795,-1.5643519134,9.7053675841,60s-1
1.7176156362780516e+18,-0.3578159180080001,-0.920046752995,11.3872401125,60s-2
1.7176156364780516e+18,1.4264811172540002,2.14407387542,10.772700553899998,60s-2
1.7176156366780516e+18,1.336129005455,2.916093452425,9.3420356372,60s-2
1.7176156368780516e+18,1.39833963766,2.04487516025,4.500241699200001,60s-2
1.7176156370780516e+18,-0.3047886886959999,0.43085652922995,8.368841903699998,60s-2
1.7176156372780516e+18,-0.5635930022840001,-1.5653548278684,11.100788291,60s-2
1.7176156374780516e+18,-0.5369933167265,-3.6457361527,12.003628326,60s-2
1.7176156376780516e+18,-0.393733726515,-2.8418253937,10.5628893587,60s-2
1.7176156378780516e+18,0.522106773385,-1.87807701875,10.093952018899998,60s-2
1.7176156380780516e+18,1.0072479171425,-0.5731880493515,9.06990902655,60s-2
1.7176156382780516e+18,1.1301648101259,2.825846122715,6.281297973649999,60s-2
1.7176156384780516e+18,0.1915940780599999,-0.108299789415,8.14887432875,60s-2
1.7176156386780516e+18,0.0223560104049999,-2.2248533936,10.69985453765,60s-2
1.7176156388780516e+18,0.4333413619714999,-3.0702204437,11.1728110195,60s-2
1.7176156390780516e+18,-0.1098715210095239,-3.059908316476191,11.277598113857144,60s-2
1.7176156392780516e+18,-0.5159395979799999,-2.9822483825000003,9.73611364775,60s-2
1.7176156394780516e+18,0.311539649957,-1.6638050994650002,10.49201174885,60s-2
1.7176156396780516e+18,0.2100956039529999,0.7590415649104999,8.063843650699997,60s-2
1.7176156398780516e+18,0.4107832718349999,2.910075966,5.610617660499999,60s-2
1.7176156400780516e+18,0.2303634566575,-0.819635559068,9.341953307949998,60s-2
1.7176156402780516e+18,0.0843346251904999,-3.1028974914000003,11.096761665,60s-2
1.7176156404780516e+18,0.6579343185875,-3.80588063045,11.422125069500002,60s-2
1.7176156406780516e+18,0.3108061752365,-3.1407013779,10.9308841099,60s-2
1.7176156408780516e+18,-0.4204307097300998,-2.5656347351000006,9.9145500867,60s-2
1.7176156410780516e+18,-0.8182584228200002,-0.96298496234,10.16592983995,60s-2
1.7176156412780516e+18,0.5428910522899999,1.4476321335865,6.735086814950002,60s-2
1.7176156414780516e+18,-0.0485739898649999,1.53924163052,6.15978815465,60s-2
1.7176156416780516e+18,-0.1529519348109999,-1.81701898945,10.632704177699996,60s-2
1.7176156418780516e+18,0.2060091018309999,-3.3655937119,10.886329262,60s-2
1.7176156420780516e+18,-0.51248927308,-3.932839118900001,12.19719829545,60s-2
1.7176156422780516e+18,-0.3108061751919999,-2.3490800629,9.86785469065,60s-2
1.7176156424780516e+18,0.0045580215585,-1.803359893765,10.278997215249998,60s-2
1.7176156426780516e+18,-0.1170041885329999,-1.1753782881985,9.57727146165,60s-2
1.7176156428780516e+18,0.3298840027005,1.967328918435,6.66767449955,60s-2
1.7176156430780516e+18,-0.3885994033815,1.66332609546,6.4993195954,60s-2
1.7176156432780516e+18,0.1531540146349999,-1.988360183745,10.528528312899995,60s-2
1.7176156434780516e+18,0.12883708193,-3.3760719223000004,11.314229438999998,60s-2
1.7176156436780516e+18,-0.2982847137265,-3.96180388645,11.5579600993,60s-2
1.7176156438780516e+18,0.075285942128,-2.39700290675,10.20715411405,60s-2
1.7176156440780516e+18,-0.1232911148349999,-1.669478301925,10.08181974835,60s-2
1.7176156442780516e+18,0.4637281723345,-0.7317084044849999,9.48901499185,60s-2
1.7176156444780516e+18,0.8053253173715001,1.3901366958639652,7.130878761300001,60s-2
1.7176156446780516e+18,-0.0225955123609999,2.2180874633395,6.46894775395,60s-2
1.7176156448780516e+18,0.556041206335,-1.1187061385505,11.11247898115,60s-2
1.7176156450780516e+18,0.724238937389,-2.65137643435,9.98881814615,60s-2
1.7176156452780516e+18,0.1516646117825,-0.8396190033150001,11.185549529349998,60s-2
1.7176156454780516e+18,-0.092994117746,-2.7962302093425,9.7054873348,60s-2
1.7176156456780516e+18,-0.348684906016,-0.8011415175875001,10.013449426,60s-2
1.7176156458780516e+18,0.96860577396,-2.4517515564,9.55748261265,60s-2
1.7176156460780516e+18,0.86437751773,-1.8867514802500005,9.636069191050002,60s-2
1.7176156462780516e+18,0.0762963409478999,-1.79975988005,9.643845519950002,60s-2
1.7176156464780516e+18,0.2004046848838095,-2.167713644952381,9.603422437428572,60s-2
1.7176156466780516e+18,-0.499234336865,-1.5881524201,9.71593560805,60s-2
1.7176156468780516e+18,-1.087653213505,-1.8239495772650005,9.63573987575,60s-2
1.7176156470780516e+18,-0.1471514968875,-1.53199669655,9.77885726195,60s-2
1.7176156472780516e+18,0.1625170440667499,-1.48799569695,9.57168807215,60s-2
1.7176156474780516e+18,-0.2631452865575,-1.3993500367,9.7435980835,60s-2
1.7176156476780516e+18,-0.1451157302885,-1.2153526611849998,9.6646073457,60s-2
1.7176156478780516e+18,-0.1784364395179999,-1.41390726465,9.7081293413,60s-2
1.7176156480780516e+18,-0.29335995484,-1.4122831420500002,9.6865816497,60s-2
1.7176156482780516e+18,-0.3020344162,-1.57908876795,9.68453839885,60s-2
1.7176156484780516e+18,-0.246185554495,-1.76619966895,9.678124237000002,60s-2
1.7176156486780516e+18,-0.292012756348,-1.8101183396,9.6654156647,60s-2
1.7176156488780516e+18,-0.4657639389049999,-1.88501509095,9.650229743900002,60s-2
1.7176156490780516e+18,-0.35536850738,-1.94335626975,9.632042564450002,60s-2
1.7176156492780516e+18,-0.3230357437149999,-1.95340038295,9.61104872125,60s-2
1.7176156494780516e+18,-0.53092343904,-1.99227454375,9.656711265549998,60s-2
1.7176156496780516e+18,-0.421890174865,-1.9802695084,9.74175691235,60s-2
1.7176156498780516e+18,-0.138694084166,-1.6012277299000002,9.49588570395,60s-2
1.7176157074780516e+18,0.58850120549,-0.417751281733,10.0578770371,60s-3
1.7176157076780516e+18,0.8464971999619999,3.07614063275,12.044321204,60s-3
1.7176157078780516e+18,1.4684762879000002,4.433570343049999,9.08308163405,60s-3
1.7176157080780516e+18,1.2240196379635002,0.771338493403,7.214449973999999,60s-3
1.7176157082780516e+18,0.5995931396749999,1.0017543412149998,7.214914009150002,60s-3
1.7176157084780516e+18,-0.1400412825725,1.36540811922,8.4316662598,60s-3
1.7176157086780516e+18,-0.254074150081,-0.8590485992389999,10.110088462400002,60s-3
1.7176157088780516e+18,1.035187316855,-2.278157547065,9.96397730285,60s-3
1.7176157090780516e+18,0.505925422634,-3.2188463745,11.445955512,60s-3
1.7176157092780516e+18,-0.5217100982885,-2.8210635681500005,11.2153300996,60s-3
1.7176157094780516e+18,-0.252809280423,-1.67647624968,9.5207714539,60s-3
1.7176157096780516e+18,0.3485277328439999,-0.7822283478215001,10.677895202799998,60s-3
1.7176157098780516e+18,0.2117272110195,0.8437429274874999,8.1316526414,60s-3
1.7176157100780516e+18,-0.2266287231204999,2.7340569992,5.880798316900001,60s-3
1.7176157102780516e+18,-0.17719402311625,-0.4023483123849999,9.641742393,60s-3
1.7176157104780516e+18,-0.7457267532249999,-2.332419708255,10.26621379875,60s-3
1.7176157106780516e+18,-0.5393658828235,-3.0876891174,11.2204270015,60s-3
1.7176157108780516e+18,-0.352217559775,-3.3913401717,10.76018657605,60s-3
1.7176157110780516e+18,-2.07327859498,-1.72687644198,10.2119067309,60s-3
1.7176157112780516e+18,-0.8803043976430001,-1.7335450744200005,10.249568412200002,60s-3
1.7176157114780516e+18,0.4105288009304,-0.9222920837699998,9.757332023899998,60s-3
1.7176157116780516e+18,1.10045908359,2.2433549195195,6.48297358695,60s-3
1.7176157118780516e+18,-0.132953521719,1.333299888526,7.279601989700001,60s-3
1.7176157120780516e+18,-0.370906196594,-1.56713612368,10.261042053999995,60s-3
1.7176157122780516e+18,-0.710998970025,-2.7261085282,10.4551284487,60s-3
1.7176157124780516e+18,-0.068909202625,-3.818222465499999,11.4175595622,60s-3
1.7176157126780516e+18,-0.5145325240765,-3.4182317505499995,10.30784971605,60s-3
1.7176157128780516e+18,-0.7339687042659498,-1.7459842071500002,9.5818219989,60s-3
1.7176157130780516e+18,-1.331593437227,-1.386095100385,10.4453687434,60s-3
1.7176157132780516e+18,-0.5645189339576191,-0.9551565987533334,9.80243002752381,60s-3
1.7176157134780516e+18,0.2241364058865,1.5662230224485,7.202654502850001,60s-3
1.7176157136780516e+18,0.0830847244205,1.621024063145,7.1989347382,60s-3
1.7176157138780516e+18,-0.567552268955,-1.10227031707,9.58586359375,60s-3
1.7176157140780516e+18,-0.7625218276855001,-2.48126268765,10.672925537149998,60s-3
1.7176157142780516e+18,-0.793230468732,-2.7678567123000004,10.58803706325,60s-3
1.7176157144780516e+18,-1.1523711319400003,-3.4003888549,10.85096530185,60s-3
1.7176157146780516e+18,-0.8732241210791001,-2.582452262905,9.64903971835,60s-3
1.7176157148780516e+18,0.0566122741945,-1.409483962985,10.58407031075,60s-3
1.7176157150780516e+18,-0.1790501633414999,-0.7580611038349999,10.838870452899998,60s-3
1.7176157152780516e+18,0.7219486999745001,0.2155816955685,8.265421966549999,60s-3
1.7176157154780516e+18,0.954579940745,3.3552577056999997,5.632801529,60s-3
1.7176157156780516e+18,-0.248064147944,-0.1640289001384999,8.093182639999998,60s-3
1.7176157158780516e+18,-0.6452182617394999,-3.3056658325,11.505875907499998,60s-3
1.7176157160780516e+18,0.2964884491375,-3.138485984850001,11.0329269112,60s-3
1.7176157162780516e+18,0.4547842712189999,-3.05575302885,10.922606322,60s-3
1.7176157164780516e+18,0.1015338592669999,-2.10576853182,9.55859030895,60s-3
1.7176157166780516e+18,-0.4425472182450001,-1.741553421065,10.0787436453,60s-3
1.7176157168780516e+18,0.29001441193415,-0.2056872710979,10.87608306985,60s-3
1.7176157170780516e+18,0.5688321076199999,0.007072792045,8.910774948,60s-3
1.7176157172780516e+18,0.34137261204,2.78497361746,6.739794525099998,60s-3
1.7176157174780516e+18,-0.2526595916839999,1.34503548435,7.105079910250001,60s-3
1.7176157176780516e+18,-0.7070846100105,-0.346364730827,10.263392166250002,60s-3
1.7176157178780516e+18,-0.98169605256,-1.7715510407,12.59680730465,60s-3
1.7176157180780516e+18,-0.3734134827174999,-1.213533943225,9.83275268675,60s-3
1.7176157182780516e+18,0.3588637390235,-1.395787445075,9.8573240887,60s-3
1.7176157184780516e+18,0.29946725462,-1.25173450465,9.7512845995,60s-3
1.7176157186780516e+18,1.313323928855,-2.263824852,9.57370887,60s-3
1.7176157188780516e+18,-0.585133209204,-1.50489555345,9.652160728400002,60s-3
1.7176157190780516e+18,-0.232661178592,-1.79501474775,9.646509979250002,60s-3
1.7176157192780516e+18,0.23793770600155,-1.8473085021,9.67542984005,60s-3
1.7176157194780516e+18,0.03091072081885,-1.31332392885,9.8130910721,60s-3
1.7176157196780516e+18,-0.2094519424575,-1.025794349615,9.997559967,60s-3
1.7176157198780516e+18,-0.2942880248939999,-0.2845881958035,9.574434860250005,60s-3
1.7176157200780516e+18,-0.8993747405575,0.5197716293400001,9.837542723949998,60s-3
1.7176157202780516e+18,0.403867652875,-0.173608978274,9.96414944475,60s-3
1.7176157204780516e+18,0.2438578949465,0.0813333664055,9.4546913681,60s-3
1.7176157206780516e+18,-0.2130141775919999,-0.5107022748714286,9.811568167809524,60s-3
1.7176157208780516e+18,-0.7591089248650001,0.1988240432809999,9.8091093522,60s-3
1.7176157210780516e+18,-0.7563696213529999,-0.30198202513545,9.970122025299998,60s-3
1.7176157212780516e+18,-1.4220503311225,-0.1592014389,9.7101950455,60s-3
1.7176157214780516e+18,-1.4335464249099998,0.13454022221655,9.98558487025,60s-3
1.7176157216780516e+18,1.983068687543,0.23241419221,10.5010903704,60s-3
1.7176157218780516e+18,4.76751091,0.94792627716,6.355835472100001,60s-3
1.7176157220780516e+18,7.152426452599999,0.6794969786970001,6.52335211955,60s-3
1.7176157222780516e+18,8.725789627100003,0.4093986511815,5.47349530795,60s-3
1.7176157224780516e+18,8.968854171950001,1.7579069138055,6.464307403605,60s-3
1.7176157226780516e+18,6.7907859877500005,6.557151832929999,4.9877254715950015,60s-3
1.7176157228780516e+18,9.168359298900002,8.21144421375,4.183732383745,60s-3
1.7176157230780516e+18,10.860440596800002,0.0796793060249998,1.857794197044,60s-3
1.7176157232780516e+18,16.7379981535,-0.5846766585825,6.0568996122500005,60s-3
1.7176157234780516e+18,10.2484232939,1.7904866639115002,7.8164531021,60s-3
1.7176157236780516e+18,4.3092538604,5.96427223195,7.851712280150001,60s-3
1.7176157238780516e+18,1.1295061798435,4.8695088043500006,7.96634390265,60s-3
1.7176157240780516e+18,2.292235771185,2.24658071135,9.3128388519,60s-3
1.7176157242780516e+18,1.0791583785555,1.7580116959355,9.947825889700002,60s-3
1.7176157244780516e+18,1.5213538284549997,4.029448219400001,9.0777302632,60s-3
1.7176157246780516e+18,2.7361676102,5.384834678700001,7.309539733799999,60s-3
1.7176157248780516e+18,2.0287312316,5.933398933449999,7.7241250991,60s-3
1.7176157250780516e+18,2.17148188025,5.993708519000001,7.7059603729,60s-3
1.7176157252780516e+18,1.6845594407,6.1458970414,7.24720935065,60s-3
1.7176157254780516e+18,0.9583071899100002,6.5929947966,7.5010365143,60s-3
1.7176157256780516e+18,,,,60s-3
