Timestamps,Acc_X,Acc_Y,Acc_Z
1.7176722990906762e+18,4.758362077904762,6.490873587571427,5.519023132285715
1.7176722992906762e+18,4.108925445599999,6.60336074075,5.734021041949999
1.7176722994906762e+18,3.8266798783,6.3937591095,6.94072169505
1.7176722996906762e+18,3.1526615066500003,7.941136322000001,5.641214035
1.7176722998906762e+18,2.1033959656500003,7.962392120400001,5.648563751299999
1.7176723000906762e+18,3.5047218933499997,8.260302612699999,5.4842654113
1.7176723002906762e+18,4.345620735050001,8.09288326295,5.3435954361
1.7176723004906762e+18,2.581479286155,7.30256423945,0.10495424655650001
1.7176723006906762e+18,0.15963553615050002,8.9247334211,2.66792452238586
1.7176723008906762e+18,5.84860027295,14.0716902692,-6.909421783179499
1.7176723010906762e+18,2.01022970578,5.9288483962,-7.469699181299999
1.7176723012906762e+18,1.304926391555,6.380339515699999,-4.6862898101015
1.7176723014906762e+18,1.543380523605,9.2612037279,-0.12208612047500005
1.7176723016906762e+18,-1.7019906921984997,11.2099263381,-1.3139750747305
1.7176723018906762e+18,-2.4236175612300004,10.253812087750003,1.9751351851050007
1.7176723020906762e+18,-2.155285560655,8.922488090749999,0.6066434784199999
1.7176723022906762e+18,-1.29048891449,9.547011886449999,2.0324734496195003
1.7176723024906762e+18,0.00856219485899996,9.085566466900001,1.9009344863350002
1.7176723026906762e+18,-2.6082960205349996,7.807322090099999,5.473779716599999
1.7176723028906762e+18,-1.6784820785599996,4.978751632650001,8.477822777050001
1.7176723030906762e+18,-0.17554744717555,3.13111381545,8.5289265059
1.7176723032906762e+18,0.9512718201330002,1.98557597345,9.532903724199999
1.7176723034906762e+18,0.32751143649500003,4.017398277229999,10.10661568425
1.7176723036906762e+18,1.0767483903,1.7663568420650002,8.662576080300001
1.7176723038906762e+18,0.29751381681200006,1.9456016005100003,7.599441879250001
1.7176723040906762e+18,0.2606529693,1.1842772826699999,9.86969586255
1.7176723042906762e+18,0.191766220046,-0.8667800216650001,11.07980193395
1.7176723044906762e+18,0.2819162521195,-2.2801558915,12.8970903625
1.7176723046906762e+18,0.20230430600900004,-1.6215105514,10.9812917862
1.7176723048906762e+18,-0.5186190261953498,1.3347294159090002,5.05019805895
1.7176723050906762e+18,0.536910987871,-0.952851036145,11.928162758450002
1.7176723052906762e+18,0.54163366696,-1.473004371625,11.964664351949999
1.7176723054906762e+18,0.52343900304,0.37395236209500005,6.58795028685
1.7176723056906762e+18,0.19635417937,0.15172448724000004,9.696041976499997
1.7176723058906762e+18,0.419921768211,-1.91158483885,13.109970176
1.7176723060906762e+18,0.7614665222300001,-0.25919350445999995,7.6721831134
1.7176723062906762e+18,0.10764115905480001,0.577184738175,7.403417014950001
1.7176723064906762e+18,0.8088205489779998,-1.493541664125,13.2949255605
1.7176723066906762e+18,0.6081553345120001,-1.2734543380449996,10.8362059934
1.7176723068906762e+18,-0.7080800399675,1.36751124576,5.37068161005
1.7176723070906762e+18,0.62873004909855,0.10936257933949997,11.0479032667
1.7176723072906762e+18,1.2492721252999999,-1.5830630036,12.7638299785
1.7176723074906762e+18,1.7998047866500002,-1.7329538040225003,9.962338210599999
1.7176723076906762e+18,-0.79482465361,1.0417736206250001,7.8912151336999985
1.7176723078906762e+18,2.52434310159,2.7852580261985,6.0811940917500005
1.7176723080906762e+18,5.98108227545,5.0547785339,5.6179449234000005
1.7176723082906762e+18,10.140325584700001,6.8745143735,4.5893888169
1.7176723084906762e+18,4.29297521195,4.171091171235,0.322317237847
1.7176723086906762e+18,4.839324073750001,2.0492984619649994,-4.55655459585
1.7176723088906762e+18,5.161993080118499,-5.040632949862499,-11.240028739575
1.7176723090906762e+18,1.00325871266,-1.2470791854494998,-9.941015052550002
1.7176723092906762e+18,0.182013999948,-0.46996270752482505,-9.746464622850002
1.7176723094906762e+18,-0.04634647914476191,-0.49476399013333333,-9.780368761428571
1.7176723096906762e+18,-0.1005533981316,-0.88433850868,-9.768760757099999
1.7176723098906762e+18,0.03626209263935,-1.5978297959000003,-9.696917655700002
1.7176723100906762e+18,-0.14449452209349997,-1.721360412624,-9.615367241049999
1.7176723102906762e+18,-0.21477337651549994,-2.2026321029949996,-9.4917692637
1.7176723104906762e+18,-0.7934774551149999,-3.568070159845,-9.26475135075
1.7176723106906762e+18,-0.4612508239605,-0.5484669571255,-9.555237281850001
1.7176723108906762e+18,-1.091732231118,-3.305044624352,-9.4958707351
1.7176723110906762e+18,-0.386428916959,-2.2598356475449997,-10.093570312450002
1.7176723112906762e+18,-0.067823959349,-0.2513647842100002,-9.09553573615
1.7176723114906762e+18,-1.24528292088,2.6686280593544995,-7.539543937700001
1.7176723116906762e+18,0.6837930450645,0.65245571136,-11.00878960492
1.7176723118906762e+18,0.22085822296999996,0.7140825576799998,-9.98005387115
1.7176723120906762e+18,1.5167583846500001,1.4440695419079996,-9.573851073749998
1.7176723122906762e+18,8.296347656250001,5.3909120408,-3.5221755981150005
1.7176723124906762e+18,7.47895742795,3.8561984940499996,1.7299899673549999
1.7176723126906762e+18,8.363774940499999,1.541718978891,4.930192611699999
1.7176723128906762e+18,4.37107530205,0.79593983461075,7.86675599685
1.7176723130906762e+18,0.9618622970565,-1.5312557372759998,9.919325157649999
1.7176723132906762e+18,-0.7234081650370001,-2.81652799995,11.731846001000001
1.7176723134906762e+18,0.9351278915450001,-1.31832353212,10.6319482504
1.7176723136906762e+18,-0.6405030669934999,0.013861175533749997,4.66732424925
1.7176723138906762e+18,1.451419258105,-1.1333007888725,10.247525161949998
1.7176723140906762e+18,-0.018838325521895006,-3.2794253999,12.0064724115
1.7176723142906762e+18,-0.20190763095499994,-2.5743915252900003,8.95586867615
1.7176723144906762e+18,-0.6141428832375,-0.058460929864999976,6.61943730925
1.7176723146906762e+18,-0.12418176269349997,-2.2394704970949997,12.413273966
1.7176723148906762e+18,0.08167765044799999,-2.6912011185,11.02726867665
1.7176723150906762e+18,-0.12740755461199998,-0.5498366089739999,5.7075336228
1.7176723152906762e+18,0.08944649505119999,-2.111247139,11.804489936600001
1.7176723154906762e+18,0.4227808227690001,-2.4127426758,11.89946743065
1.7176723156906762e+18,-0.0757724304155,-0.4478461990235,5.97778912355
1.7176723158906762e+18,0.11998299407339999,-1.294193710305,9.6211751632
1.7176723160906762e+18,0.9204434279299999,-2.4385190734999997,12.869929343999999
1.7176723162906762e+18,0.72556368258,-2.84952687825,10.12517708575
1.7176723164906762e+18,-0.7861202544899999,-0.9357565841049998,8.241359504699997
1.7176723166906762e+18,-0.50653166198535,0.21635259247049995,7.5377252197999995
1.7176723168906762e+18,2.8685373459839996,2.07592060095,8.801644386300001
1.7176723170906762e+18,3.427115776150001,1.7662296067499998,8.66337691495
1.7176723172906762e+18,6.6725468675,3.6202890701499997,8.879497489950001
1.7176723174906762e+18,7.31061000825,4.23704402165,4.785518463050001
1.7176723176906762e+18,7.746189216599999,4.059730247500001,2.9675339814
1.7176723178906762e+18,9.992665146499998,1.8945652313844998,1.332514022829
1.7176723180906762e+18,8.4005609435,3.5109713972999996,-3.2325054702500005
1.7176723182906762e+18,6.567315697050001,2.8208540038649996,-6.19110303515
1.7176723184906762e+18,1.3044623565750002,0.7821460189471001,-10.84630249825
1.7176723186906762e+18,0.48948211669950004,0.852888908395,-9.76564723205
1.7176723188906762e+18,0.37923637390000003,0.864631988525,-9.740050460949998
1.7176723190906762e+18,0.45958927921105,0.8782985687350001,-9.719019195600001
1.7176723192906762e+18,0.24064707183915002,0.9115818557650002,-10.116001167349998
1.7176723194906762e+18,3.165220390395,1.6835265884949997,-9.1605605171
1.7176723196906762e+18,8.603104751550001,3.3910782165,-3.485067764224999
1.7176723198906762e+18,9.267392644619047,3.681986127571429,0.28502158026095237
1.7176723200906762e+18,7.836683532750001,0.3760255509,4.886984962550001
1.7176723202906762e+18,3.8587282333400004,-0.146320724515,8.05473509235
1.7176723204906762e+18,0.05107379157499996,0.21341869353950002,9.45454916305
1.7176723206906762e+18,0.809838432356,-2.4217988433499995,10.8151298224
1.7176723208906762e+18,0.04539310457549995,-2.3439457398,11.371522796150002
1.7176723210906762e+18,-0.26029371641899995,-1.360752800014,10.343909729100002
1.7176723212906762e+18,-0.5739514618194999,0.13668825528750003,6.079293045050001
1.7176723214906762e+18,0.177179054278,-0.053319122322,8.099739005999998
1.7176723216906762e+18,-0.2831212463538,-2.9206739272499997,12.321222885500001
1.7176723218906762e+18,1.3057945860999998,-3.1855331498,11.401557838000002
1.7176723220906762e+18,-0.24754023735000003,-0.10459499354350002,6.5414943924
1.7176723222906762e+18,0.5481750641165,-0.483157768221,8.73134307835
1.7176723224906762e+18,1.0515857162,-3.4490825958,12.665357253
1.7176723226906762e+18,1.866348907455,-2.05236708065,10.006294303799999
1.7176723228906762e+18,-0.396839767422,-0.20050055694999996,5.4664075469
1.7176723230906762e+18,0.275397308333,-2.098022140415,11.8130296778
1.7176723232906762e+18,0.41474253845450004,-2.9138855438499998,12.177297178999998
1.7176723234906762e+18,-0.019062858580700014,-1.000751426695,6.736853141699998
1.7176723236906762e+18,-0.0553099822935,-1.0441237334740001,8.1095885244
1.7176723238906762e+18,0.33191976928955,-3.2349678497500003,13.040514609999999
1.7176723240906762e+18,0.036232154835999994,-2.4300242386499997,10.2411783597
1.7176723242906762e+18,0.1241892471495,-1.127215942353,9.188170600900001
1.7176723244906762e+18,0.361969779935,0.1813404007155,10.1812729336
1.7176723246906762e+18,0.3853511581455,0.3671564941408,10.618176888049998
1.7176723248906762e+18,1.4775773620834998,0.5425467681127,8.87690787505
1.7176723250906762e+18,0.5946833495357501,4.366711876,8.83791396315
1.7176723252906762e+18,-0.43349853527000004,2.6692342988499997,9.911286873200002
1.7176723254906762e+18,-0.999336868213,4.120458961550001,8.998522476150002
1.7176723256906762e+18,0.17887053680499998,5.110739662049999,8.21499183665
1.7176723258906762e+18,-0.635772903542,5.91383461765,5.3316427918
1.7176723260906762e+18,-2.320212593075,8.0817688752,4.505825088450001
1.7176723262906762e+18,-2.6524092864549997,8.6388204804,3.0238992691499997
1.7176723264906762e+18,-1.4504387969367498,9.793661476499999,3.3075893324999996
1.7176723266906762e+18,-1.65996558384535,9.115347038,3.5686464615499993
1.7176723268906762e+18,-1.227904060433,8.95585370615,3.1114896241
1.7176723270906762e+18,-1.51414631652,8.989211838100001,3.4838777388999995
1.7176723272906762e+18,-1.797993553025,9.356959602649999,3.5294355011
1.7176723274906762e+18,-0.6913598098439999,9.678842743549998,3.6227739028499997
1.7176723276906762e+18,-1.7658703537249998,9.898877677799998,2.72792724606
1.7176723278906762e+18,-0.31225067139499996,10.288973969100002,0.7924595718069998
1.7176723280906762e+18,-4.10794498435,7.820337524050001,-2.3623948745300005
1.7176723282906762e+18,-12.6298136671,1.221242912346,2.145825233435
1.7176723284906762e+18,-5.21118827815,3.6635266571450003,5.90848324575
1.7176723286906762e+18,-5.645495132405,5.9209298629500005,6.8602116165
1.7176723288906762e+18,-1.28655958554,5.5116434784,8.04063441475
1.7176723290906762e+18,-2.07958049014,5.6353537216500005,7.678941558850001
1.7176723292906762e+18,-1.7824932861250002,5.3923939591,7.526565925650002
1.7176723294906762e+18,-2.05018910975,5.828803939849999,7.401508483700001
1.7176723296906762e+18,-2.1024005355,5.987780845800001,7.448548164399999
1.7176723298906762e+18,-2.50704656985,6.1622056274,7.16796414195
1.7176723300906762e+18,-2.4075484772,5.950905029299999,7.2730082017000015
1.7176723302906762e+18,-2.3316156659047618,5.7762168665714295,7.664426029714287
1.7176723304906762e+18,-1.9749331054000003,5.207872673200001,8.11175152595
1.7176723306906762e+18,-1.5756758652499998,4.99851802815,8.178071113650002
1.7176723308906762e+18,-1.4835424576250003,4.87666392515,8.41046285245
1.7176723310906762e+18,-0.945074707125,4.564256080600001,8.180383804349999
1.7176723312906762e+18,-0.09036708066303503,4.182527389600001,8.8468503798
1.7176723314906762e+18,-1.1883113937249998,3.7669465943,9.465558769100001
1.7176723316906762e+18,-0.82685803984605,4.0965761260999995,9.739249626599998
1.7176723318906762e+18,-0.48327003484400005,4.391515297,9.2697659224
1.7176723320906762e+18,-0.44015219879249995,5.5548211899,6.994362648100001
1.7176723322906762e+18,0.2920651473665,6.4731091002999985,6.9165469665
1.7176723324906762e+18,-1.0671234054299998,6.7248181686,7.5705968627499995
1.7176723326906762e+18,-1.035778587335,7.4373439636,6.1670705107499995
1.7176723328906762e+18,-1.724303765605263,8.174587699526317,3.520568414005263
1.7176723330906762e+18,,,
