Timestamps,Acc_X,Acc_Y,Acc_Z
1.7176795366008044e+18,-5.071612234705882,8.173755455047058,1.9701446028117646
1.7176795368008044e+18,-5.080923863797618,8.224316574309523,1.7023473154523812
1.7176795370008044e+18,-4.951608624152941,8.439316592505882,2.0675360090470587
1.7176795372008044e+18,-1.0695240703628572,7.7198013180238085,5.369066723785714
1.7176795374008044e+18,-1.2144349082290589,7.584867701823528,6.52244746824706
1.7176795376008044e+18,1.3080336517977382,5.457953674523809,8.027980509297619
1.7176795378008044e+18,8.098493962047618,3.6940979786785713,6.783926401869048
1.7176795380008044e+18,7.732997527047058,1.135468237955059,8.417080901282352
1.7176795382008044e+18,5.834128876565321,-4.5667055446594045,6.1127111671392855
1.7176795384008044e+18,-5.453052777281176,-19.700580383917647,7.178189935140294
1.7176795386008044e+18,-3.1047407548224997,-11.614647147226194,-0.4914651236976191
1.7176795388008044e+18,-8.45821290835294,-2.139127138148117,1.2556794283059765
1.7176795390008044e+18,-8.29637900427381,0.7444170944770236,8.047945583154762
1.7176795392008044e+18,-6.349828487373809,-2.525179188335833,8.466262294904762
1.7176795394008044e+18,-5.495039784845907,-1.6426305258137648,8.067753415988236
1.7176795396008044e+18,-4.967012020797619,-1.9369970581536906,8.042284034464286
1.7176795398008044e+18,-5.255556941281176,-0.789452013538306,9.156301257105884
1.7176795400008044e+18,-3.3276934603382617,-0.8176438759142858,8.901645637714283
1.7176795402008044e+18,-2.482078443328,-0.6593246929429412,9.564478069117646
1.7176795404008044e+18,-1.3773827763807978,1.8047259444311905,10.113272019785715
1.7176795406008044e+18,-0.07165293026708332,1.2570579818170238,9.751133305464284
1.7176795408008044e+18,-0.31557811927882345,1.8269658379847058,9.867346101623529
1.7176795410008044e+18,-0.9180569724238099,0.5471053667365476,9.960099299559525
1.7176795412008044e+18,0.40526674529058826,2.2096555892000005,9.985467080576472
1.7176795414008044e+18,-0.27078064084785713,0.8917786500154763,11.048367182511903
1.7176795416008044e+18,1.7393287193982354,-1.799729876758,11.083392670741175
1.7176795418008044e+18,0.010169491379404764,-1.8664906855226195,10.643940993749998
1.7176795420008044e+18,2.1647923446547614,-0.8000146048074763,6.645381212285716
1.7176795422008044e+18,1.6970144489388237,-1.317854107142353,7.045075079952939
1.7176795424008044e+18,1.438068604884524,0.04983622821869048,10.110391332821429
1.7176795426008044e+18,1.434053809487059,0.6723585305621177,10.772533271047058
1.7176795428008044e+18,1.2604976674690476,0.841173304502381,11.489493983571428
1.7176795430008044e+18,1.2594129295364707,0.3228973408252,10.940034384
1.7176795432008044e+18,1.6121927428535714,0.10910131746188095,10.431389218511905
1.7176795434008044e+18,1.4576349144964285,-1.349562655582143,8.823056334607145
1.7176795436008044e+18,1.5602329639964705,-1.9861624381529408,7.334099921047059
1.7176795438008044e+18,1.1074745204226193,-0.9064311335059523,8.675612909392857
1.7176795440008044e+18,1.3310357456393644,0.5844082219000001,10.5145975906
1.7176795442008044e+18,1.4185414668702383,0.9119502799023808,11.75859754392857
1.7176795444008044e+18,1.9426341786470587,0.5506659095635529,11.736921702941176
1.7176795446008044e+18,1.1459519659404762,-0.09913122420761906,10.067313455488094
1.7176795448008044e+18,1.4425658250238094,-1.2316627230940238,8.328204938345237
1.7176795450008044e+18,1.2491097226058823,-1.264568058850588,7.753917133152942
1.7176795452008044e+18,0.7403898860384523,-0.6520797802516668,8.346948737190477
1.7176795454008044e+18,1.5345066031776469,1.2847557487316468,10.877838538435295
1.7176795456008044e+18,0.6144782822725,1.0092584084439287,11.351717971178573
1.7176795458008044e+18,1.096447634342353,1.2096070380458823,11.856179282470588
1.7176795460008044e+18,1.1311392464488097,0.49520034514402395,10.47617281029762
1.7176795462008044e+18,1.5180608134,-0.8173554567318453,8.698568991238094
1.7176795464008044e+18,1.2219406256998824,-1.5387679373752943,7.598739046211764
1.7176795466008044e+18,1.1198659212267859,-0.6038245212601191,8.624576704738095
1.7176795468008044e+18,0.6916735392565884,0.9148323986352942,10.607344066529413
1.7176795470008044e+18,0.7882534646271072,1.7474940433547619,11.467317660714286
1.7176795472008044e+18,0.8571442584691413,1.9132411634470587,11.480907361882352
1.7176795474008044e+18,0.4357785816314643,0.6685090697389285,10.209230604642858
1.7176795476008044e+18,1.3843938846511905,-0.7506056722239524,9.146030425988096
1.7176795478008044e+18,1.0417540457223529,-1.3777661667188235,7.854018048694118
1.7176795480008044e+18,0.8493808204179762,-0.7913726799935714,8.679672173083333
1.7176795482008044e+18,1.3747047623298823,0.7724594515276472,10.005777976388234
1.7176795484008044e+18,1.1141366800583337,1.302329331607143,10.681912853452381
1.7176795486008044e+18,1.2852976400188234,1.4364607032258827,11.601048166823531
1.7176795488008044e+18,1.2991353422309526,0.9303451063369049,10.81235371357143
1.7176795490008044e+18,1.2741282014000237,0.023394113120714283,9.836569910809525
1.7176795492008044e+18,1.5913502158410584,-0.9252165471688472,8.675994845011763
1.7176795494008044e+18,1.5638057319869048,-0.7604369003059525,7.23026970457143
1.7176795496008044e+18,2.0173571074882353,-0.38170447814788244,10.068663361376471
1.7176795498008044e+18,2.0790708967583336,-0.49171793368471417,9.897415910595239
1.7176795500008044e+18,2.2077729912,-0.6926236373274117,9.568018026799999
1.7176795502008044e+18,2.1378446136595244,0.7766454239679762,10.851482732083333
1.7176795504008044e+18,1.1302561862664287,0.4563383332089285,10.131681135619047
1.7176795506008044e+18,-0.4703304039665647,1.566130562304706,10.286663649835294
1.7176795508008044e+18,-0.2944204483210714,2.032539042702381,9.834832259773808
1.7176795510008044e+18,0.33201821671882353,0.7673254357675882,9.883912871917648
1.7176795512008044e+18,-0.3963005679014285,1.3790741321690476,9.892694382488095
1.7176795514008044e+18,-0.6550387180299176,1.9560269439882354,9.842932241082353
1.7176795516008044e+18,-0.11392613037376191,1.1095005791595238,9.941811289107143
1.7176795518008044e+18,-0.2832040907398571,1.6669499206785718,9.897647403261905
1.7176795520008044e+18,-0.09683190337674119,1.2815606187611766,9.707804612694117
1.7176795522008044e+18,-0.30959991471858334,1.4450191812535718,9.971799941369047
1.7176795524008044e+18,-0.4191556692379999,1.6076073379647058,9.871924108576469
1.7176795526008044e+18,-0.7519943618380952,1.7195136845595236,9.815757285964285
1.7176795528008044e+18,-0.6332605134058824,1.7662479540705884,9.80212055664706
1.7176795530008044e+18,-0.7768305863238096,1.6683528508928571,9.754986002369048
1.7176795532008044e+18,-0.7564486552705881,1.8460732220823526,9.768272657964706
1.7176795534008044e+18,-0.781950939979762,1.941387458940476,9.785391274
1.7176795536008044e+18,-0.8157744876059522,2.0351241458214284,9.765201807
1.7176795538008044e+18,-0.8287048599282353,2.013634154423529,9.75161436867059
1.7176795540008044e+18,-0.8603942209761907,1.964386325488095,9.738367943535716
1.7176795542008044e+18,-0.7554598562835294,2.046950692317647,9.725972568305881
1.7176795544008044e+18,-0.9247547388095237,1.975203885857143,9.762997649976189
1.7176795546008044e+18,-0.9483671058435293,2.0231491439411764,9.715187218564706
1.7176795548008044e+18,-0.6214466644928571,2.2176623514761906,9.708664201571429
1.7176795550008044e+18,-1.125025453297619,1.9410135787738096,9.763186420738098
1.7176795552008044e+18,-0.7158093733,2.091960390952941,9.736412945882353
1.7176795554008044e+18,-0.7810393848642857,2.0017100885,9.750378347607144
1.7176795556008044e+18,-0.7562058518894118,1.954401236329412,9.753880556858824
1.7176795558008044e+18,-0.6455066367238095,1.9072078352142856,9.722593841095238
1.7176795560008044e+18,-0.7274638260117647,1.941040128788235,9.742296499305883
1.7176795562008044e+18,-0.7761255545214286,2.017747690238095,9.754982426083332
1.7176795564008044e+18,-0.7705636670154762,2.0342980637380954,9.737463519678574
1.7176795566008044e+18,-0.8574539205588232,2.0810096938,9.744689268282352
1.7176795568008044e+18,-0.8448942793249999,2.115226734309524,9.723989747785714
1.7176795570008044e+18,-0.8462252441564705,2.1118911912000002,9.731571152564706
1.7176795572008044e+18,-0.8441856915059522,2.1103271330833335,9.733304580059523
1.7176795574008044e+18,-0.7980556158458825,2.064456998611765,9.739284347105881
1.7176795576008044e+18,-0.7598849840107141,2.023943401559524,9.741793428095237
1.7176795578008044e+18,-0.7078624573488096,1.984625614809524,9.730456011583334
1.7176795580008044e+18,-0.6809586181376471,1.9277212605058824,9.704405380694118
1.7176795582008044e+18,-0.7984870508988096,2.082987724392857,9.753843046369047
1.7176795584008044e+18,-0.813338014657647,2.0709598429882354,9.738805669905883
1.7176795586008044e+18,-0.8416148339059523,2.1108683887023814,9.726468006702381
1.7176795588008044e+18,-0.8485089863082355,2.116057525058824,9.721549348211765
1.7176795590008044e+18,-0.8616618436047616,2.117648036702381,9.74287581435714
1.7176795592008044e+18,-0.8077449940571428,2.085914654321429,9.73005716002381
1.7176795594008044e+18,-0.7804050298294117,2.018198122717647,9.752962157282354
1.7176795596008044e+18,-0.7392255245202383,2.008767492797619,9.74319638522619
1.7176795598008044e+18,-0.665954208375294,1.896885521211765,9.702969674470591
1.7176795600008044e+18,-0.7508478065321429,1.9876024084285713,9.745952401809525
1.7176795602008044e+18,-0.7648727956941178,2.050455481882353,9.745470462082352
1.7176795604008044e+18,-0.8411804231869047,2.094973209380952,9.746807007535715
1.7176795606008044e+18,-0.8601414007761905,2.1047723776666665,9.725385518309524
1.7176795608008044e+18,-0.8346939514694116,2.118759996788235,9.722027913235292
1.7176795610008044e+18,-0.8597568422571429,2.136648178059524,9.730374097809525
1.7176795612008044e+18,-0.8164979429835294,2.0849508075176475,9.762508818729412
1.7176795614008044e+18,-0.7783474574500001,2.002518377202381,9.715137651988092
1.7176795616008044e+18,-0.7655800889505882,1.9509527613647057,9.759299581176473
1.7176795618008044e+18,-0.6855579274047618,1.9208419408809523,9.705737318297619
1.7176795620008044e+18,-0.7225612210369047,1.93041678827381,9.758429220714286
1.7176795622008044e+18,-0.7912536670164706,2.0126875904588237,9.74404184670588
1.7176795624008044e+18,-0.846792160045238,2.0582262916428573,9.747273422440477
1.7176795626008044e+18,-0.8550786894941176,2.1029955415294124,9.727235816494117
1.7176795628008044e+18,-0.8618826106904761,2.114343648857143,9.726468074785714
1.7176795630008044e+18,-0.8731163515752941,2.0653578365882352,9.738918405364709
1.7176795632008044e+18,-0.8998295040404762,2.01964559027381,9.744072312380952
1.7176795634008044e+18,-0.8284151433452381,2.0318981083333334,9.735166890261903
1.7176795636008044e+18,-0.7689652253611767,1.9548833159882355,9.749672036894117
1.7176795638008044e+18,-0.7372315043464285,1.9487261587142857,9.751905906714285
1.7176795640008044e+18,-0.7107985180941175,1.902346776435294,9.72430455827059
1.7176795642008044e+18,-0.7950295649869046,2.006381801285714,9.747889393880953
1.7176795644008044e+18,-0.7937802062317647,2.016005855505883,9.730810883435293
1.7176795646008044e+18,-0.8348992630166666,2.0867692444761907,9.74019820347619
1.7176795648008044e+18,-0.886473134872619,2.097479973607143,9.72801685329762
1.7176795650008044e+18,-0.8801153554635294,2.1102584389764703,9.71983213984706
1.7176795652008044e+18,-0.8823675924785715,2.1318055930476194,9.735669011107143
1.7176795654008044e+18,-0.8456516721670586,2.0773500919058825,9.733316309247057
1.7176795656008044e+18,-0.7769623334916667,2.0730674665238094,9.74331743375
1.7176795658008044e+18,-0.7878579679729412,2.0025286421529414,9.732218484282354
1.7176795660008044e+18,-0.692394566677381,1.927892227964286,9.70481866879762
1.7176795662008044e+18,-0.7717280274309524,1.9724941593690475,9.739685421857143
1.7176795664008044e+18,-0.7961519157188237,2.0227937487647054,9.740382239376471
1.7176795666008044e+18,-0.8490995253821428,2.107108211202381,9.73615320527381
1.7176795668008044e+18,-0.8766140972905881,2.125403594988235,9.732021443905884
1.7176795670008044e+18,-0.816294353634524,2.1471025432380957,9.723818790321427
1.7176795672008044e+18,-0.9861455559282353,2.0321363112588235,9.738239254682352
1.7176795674008044e+18,-0.8163584484940477,2.05016475627381,9.739201193726192
1.7176795676008044e+18,-0.8192746994023811,1.9950657458928571,9.739229713119048
1.7176795678008044e+18,-0.7612167028870588,1.9848323191764705,9.750685433788236
1.7176795680008044e+18,-0.7140724006166667,1.9385174995476189,9.709860597333334
1.7176795682008044e+18,-0.7529966550694117,1.971344528482353,9.738974616035293
1.7176795684008044e+18,-0.7871709948511905,2.015244485321429,9.740910405214288
1.7176795686008044e+18,-0.8543150992988237,2.046496761564706,9.744745579894115
1.7176795688008044e+18,-0.8397418814011905,2.114087297845238,9.727464982416668
1.7176795690008044e+18,-0.9024858141250001,2.081470832904762,9.72672435209524
1.7176795692008044e+18,-0.88439428526,2.137170651364706,9.738130187964705
1.7176795694008044e+18,-0.8555195530238097,2.054779472869048,9.731880278773808
1.7176795696008044e+18,-0.8027145813494118,2.0290924969882354,9.74283130875294
1.7176795698008044e+18,-0.7871069014071429,2.00200918177381,9.737349634988096
1.7176795700008044e+18,-0.7263377939964707,1.9459700570470588,9.70268820595294
1.7176795702008044e+18,-0.7732377854130952,1.9858932552499993,9.737064827047618
1.7176795704008044e+18,-0.8211583346154763,2.0295693860833333,9.744385673821428
1.7176795706008044e+18,-0.8498637458835294,2.1091887081999996,9.736581892047056
1.7176795708008044e+18,-0.8954818298404761,2.0914694326785717,9.724274646619048
1.7176795710008044e+18,-0.8788485660305881,2.0939591099764705,9.71493387782353
1.7176795712008044e+18,-0.8986580144821429,2.1050002744761906,9.740824915119045
1.7176795714008044e+18,-0.8374984769305881,2.0790672975647055,9.732837755529413
1.7176795716008044e+18,-0.8109888391845237,2.0375739535,9.734700464011906
1.7176795718008044e+18,-0.7681103135857144,1.9916438559523808,9.742249250392858
1.7176795720008044e+18,-0.7162597859564707,1.9430986642588233,9.719325368564705
1.7176795722008044e+18,-0.7492810743226191,1.961861760785714,9.733931280297622
1.7176795724008044e+18,-0.8149250156729411,2.0293528977764703,9.735033517682352
1.7176795726008044e+18,-0.8419068143452381,2.072839589321429,9.740796452392855
1.7176795728008044e+18,-0.8716736218458824,2.0994766488117653,9.728868495741176
1.7176795730008044e+18,-0.8926083041119048,2.0915548744285717,9.720514456380954
1.7176795732008044e+18,-0.9059112618357141,2.122747035297619,9.73908733185714
1.7176795734008044e+18,-0.850979222969412,2.0720858882588233,9.729403361141175
1.7176795736008044e+18,-0.8271012256559525,2.0444960352142854,9.733646472226193
1.7176795738008044e+18,-0.7681981149835294,1.970514087082353,9.751304761105882
1.7176795740008044e+18,-0.7201968842999998,1.9448769844761902,9.71587115238095
1.7176795742008044e+18,-0.7495340964341176,1.9715169612000005,9.751220254329413
1.7176795744008044e+18,-0.7634101254654763,1.988410702785714,9.73891640842857
1.7176795746008044e+18,-0.834714101182143,2.0227006873333333,9.744841359880953
1.7176795748008044e+18,-0.8249467183588233,2.0567999588,9.732331040258824
1.7176795750008044e+18,-0.8641792862083333,2.0846897705595233,9.73074092177381
1.7176795752008044e+18,-0.8915516411576471,2.091566273729412,9.72551861929412
1.7176795754008044e+18,-0.883667267504762,2.098989730797619,9.737093278285716
1.7176795756008044e+18,-0.8588051599588237,2.0754639850705887,9.733738652388235
1.7176795758008044e+18,-0.8128083795416666,2.0280311435119054,9.734671955940476
1.7176795760008044e+18,-0.7741778258809523,1.9932711293809517,9.742277701666668
1.7176795762008044e+18,-0.7511105446235293,1.9636523120235299,9.717298530141177
1.7176795764008044e+18,-0.7438117634690476,1.9494062577380948,9.745354255023809
1.7176795766008044e+18,-0.7846100610764706,2.006040469329412,9.734048248729414
1.7176795768008044e+18,-0.8650409941166667,2.082809675357143,9.740369070166667
1.7176795770008044e+18,-0.8726588957458822,2.0938746368705883,9.729178159341176
1.7176795772008044e+18,-0.8922664736011905,2.090386949833334,9.722935756047619
1.7176795774008044e+18,-0.9290027093190477,2.108902837654762,9.743520430154762
1.7176795776008044e+18,-0.7188778169058824,2.0871465907999998,9.737201163352939
1.7176795778008044e+18,-0.8235191085488095,2.0236941562261905,9.721141168059525
1.7176795780008044e+18,-0.7906202694905881,1.9645003529529415,9.769124176941178
1.7176795782008044e+18,-0.7370320998500001,1.8619435996904758,9.718292486071428
1.7176795784008044e+18,-0.6988062571070588,2.001807276,9.746068674011763
1.7176795786008044e+18,-0.8228817369238095,1.9618119043928568,9.744018918023812
1.7176795788008044e+18,-0.8499861522797618,2.0765961792023817,9.740255208178572
1.7176795790008044e+18,-0.9130237109470588,2.0859923979999997,9.727095020494119
1.7176795792008044e+18,-0.9229743657999999,2.0908427238928575,9.72786370907143
1.7176795794008044e+18,-0.9248470629011765,2.1182532760117647,9.725405951082353
1.7176795796008044e+18,-0.8602482250738097,2.0503071859761905,9.733475526130952
1.7176795798008044e+18,-0.8353801327623527,2.01761046582353,9.73402006487059
1.7176795800008044e+18,-0.7998793032928572,1.9605905725833332,9.748206320190475
1.7176795802008044e+18,-0.7642112941964285,1.946653804571429,9.71672588297619
1.7176795804008044e+18,-0.8032459287117646,1.9781007569647062,9.743647732505883
1.7176795806008044e+18,-0.8210977997119047,1.9977683439166665,9.743474063416667
1.7176795808008044e+18,-0.85887553762,2.057644490705882,9.735568394364707
1.7176795810008044e+18,-0.9044584717083334,2.0785937507857146,9.726183198654763
1.7176795812008044e+18,-0.9101241693729413,2.092917512482353,9.720057330341175
1.7176795814008044e+18,-0.9092156369047618,2.09793574477381,9.72139750207143
1.7176795816008044e+18,-0.9030377346809524,2.0847182444047627,9.712281885535713
1.7176795818008044e+18,-0.8979629993423528,2.0828676532235293,9.720817464964705
1.7176795820008044e+18,-0.8950581004178572,2.0915264061785717,9.710800693154761
1.7176795822008044e+18,-0.9175313633976468,2.089511254270588,9.735230625376472
1.7176795824008044e+18,-0.8853230135785713,2.086398923714286,9.736808413476192
1.7176795826008044e+18,-0.8489277292705882,2.0188702176235296,9.732697038094118
1.7176795828008044e+18,-0.7699975037809523,1.9384320305714287,9.704248905178574
1.7176795830008044e+18,-0.8161412392273808,1.9782696906071433,9.722280524988097
1.7176795832008044e+18,-0.8493886982729411,2.034405955152941,9.739284234882351
1.7176795834008044e+18,-0.9023220269404761,2.0795907746666664,9.733931303035712
1.7176795836008044e+18,-0.9169366801447058,2.1042623127294116,9.723322789764707
1.7176795838008044e+18,-0.9216070373833335,2.110441083,9.722707873285716
1.7176795840008044e+18,-0.905985994202353,2.0940716940588233,9.736525479470588
1.7176795842008044e+18,-0.8674338190309524,2.0555770965119047,9.73059844967857
1.7176795844008044e+18,-0.8240069356702381,1.9973731026190473,9.745297125404763
1.7176795846008044e+18,-0.7718014247211765,1.9422787708588234,9.730276018
1.7176795848008044e+18,-0.7624415996500001,1.9318375346309522,9.727692853857143
1.7176795850008044e+18,-0.800828474412941,1.9786320881999997,9.731064269117645
1.7176795852008044e+18,-0.8724651506964287,2.0303670012261903,9.742733410428572
1.7176795854008044e+18,-0.886755439812941,2.098688445376471,9.735737295694117
1.7176795856008044e+18,-0.9207524543797616,2.1017813512380945,9.716469412690474
1.7176795858008044e+18,-0.9110957071892857,2.104459036047619,9.717893702607144
1.7176795860008044e+18,-0.9201177176270589,2.1126512584588233,9.733569706164706
1.7176795862008044e+18,-0.8723334088202379,2.071700141619048,9.735355558797618
1.7176795864008044e+18,-0.8479213370964707,2.025256942341177,9.737313708094117
1.7176795866008044e+18,-0.7787605084142856,1.9499474919999997,9.74472749795238
1.7176795868008044e+18,-0.7481265537882352,1.9106125788941173,9.71265367617647
1.7176795870008044e+18,-0.7956562581488095,1.9829200236785713,9.733475503500001
1.7176795872008044e+18,-0.8653151712238097,2.0319657608928576,9.740055822166667
1.7176795874008044e+18,-0.879094889587059,2.059586914894118,9.736666253023527
1.7176795876008044e+18,-0.9093580629130952,2.113830932571429,9.722878819380952
1.7176795878008044e+18,-0.9214126607905884,2.0996455810235295,9.718227465011765
1.7176795880008044e+18,-0.9268769409023809,2.1292703179761903,9.727778309857143
1.7176795882008044e+18,-0.8820155382211766,2.058657926705883,9.735765423423528
1.7176795884008044e+18,-0.8364766694249999,2.0282234223809525,9.735099213452381
1.7176795886008044e+18,-0.8118042498857141,1.9761795260714285,9.740910337059523
1.7176795888008044e+18,-0.746212298022353,1.9108201882470583,9.72129592897647
1.7176795890008044e+18,-0.7689933769761904,1.9143471391785711,9.72920262245238
1.7176795892008044e+18,-0.844493966244706,2.011251895529412,9.740522911988235
1.7176795894008044e+18,-0.8730348738928572,2.070446777845238,9.751279354
1.7176795896008044e+18,-0.9089418383188236,2.0828113640823527,9.72484291302353
1.7176795898008044e+18,-0.9200972801130951,2.0932355609047617,9.71820710952381
1.7176795900008044e+18,-0.9414332785738098,2.1290139385476192,9.74219222295238
1.7176795902008044e+18,-0.8632741079611763,2.0415703535529413,9.731373899117646
1.7176795904008044e+18,-0.8404326616392856,2.012171577821429,9.74091043922619
1.7176795906008044e+18,-0.810357536984706,1.9801416719529408,9.750854368788236
1.7176795908008044e+18,-0.7436123660595237,1.908945473857143,9.700659672369047
1.7176795910008044e+18,-0.7990760880376471,1.9093880190470587,9.741339335752938
1.7176795912008044e+18,-0.8731915425690476,1.998003343797619,9.756121907940475
1.7176795914008044e+18,-0.869548899077381,2.056944412869048,9.73940055704762
1.7176795916008044e+18,-0.9305335367388236,2.0453109040823527,9.728530648105883
1.7176795918008044e+18,-0.912178175788095,2.1027213817857144,9.720970210559525
1.7176795920008044e+18,-0.9274650973352943,2.1187036991411765,9.728052172929413
1.7176795922008044e+18,-0.9334287217785715,2.0942895355595237,9.722251971583333
1.7176795924008044e+18,-0.8428401077541178,2.061641909141177,9.732556264494116
1.7176795926008044e+18,-0.8315129904607143,2.01881948972619,9.736324071857142
1.7176795928008044e+18,-0.7789919539571428,1.982873742154762,9.752732129285715
1.7176795930008044e+18,-0.7557835894505883,1.8851325328588235,9.696213475388236
1.7176795932008044e+18,-0.828393775792857,1.9938550633809524,9.73800479797619
1.7176795934008044e+18,-0.8506766017705883,2.050071905705882,9.743816532811763
1.7176795936008044e+18,-0.9158243820738095,2.1001291614880953,9.73079784709524
1.7176795938008044e+18,-0.9031427572764704,2.0993359229647064,9.713807790435293
1.7176795940008044e+18,-0.9348815048011906,2.1104695910714284,9.732820363250001
1.7176795942008044e+18,-0.9024537745047619,2.059490362869048,9.730342127011905
1.7176795944008044e+18,-0.8809176563964707,2.060843139529412,9.772178582623528
1.7176795946008044e+18,-0.4890616153011905,1.9516068044285713,9.763535340630952
1.7176795948008044e+18,-0.5674825254635294,1.6295755583294125,9.807736666035295
1.7176795950008044e+18,-0.4473688174976191,1.2546865273452381,9.830979517595235
1.7176795952008044e+18,-0.13312187120270588,1.3356208184117646,9.856909123376472
1.7176795954008044e+18,-0.7193494299561904,1.659860467654762,9.876802773702382
1.7176795956008044e+18,-0.8054340671559523,1.1414654168958451,9.880416881511906
1.7176795958008044e+18,-0.3100640714967059,1.0544641578391765,10.032408591011766
1.7176795960008044e+18,-0.7159489114289286,0.8958094162535714,10.398630392345238
1.7176795962008044e+18,0.5097134526190705,-0.05706881905952941,11.502696070588234
1.7176795964008044e+18,2.078679212528571,-3.2961345456904754,9.843986931369049
1.7176795966008044e+18,0.848892537983647,-2.7393068860823533,9.616272141129413
1.7176795968008044e+18,0.19292132590450004,-2.166515753404762,8.384639263166665
1.7176795970008044e+18,0.9361811762916668,-1.4185379019785713,7.210945532428574
1.7176795972008044e+18,0.3922610472914118,-1.5326908865388233,8.998322178447058
1.7176795974008044e+18,0.9608286785869049,0.045513481142142855,10.032720793059521
1.7176795976008044e+18,0.24273425935569407,0.7937379790067648,10.41346565717647
1.7176795978008044e+18,0.5142111788772977,1.432745283707143,11.400660469285713
1.7176795980008044e+18,0.9194033874244353,0.9141743778773177,10.906770660588236
1.7176795982008044e+18,0.631943747325,0.26822758332666663,10.729434546904761
1.7176795984008044e+18,1.2636916522988095,-0.29265075517315475,9.988432225523809
1.7176795986008044e+18,1.0047532642517647,-1.3025013397882352,8.600364090423527
1.7176795988008044e+18,1.0840732876430952,-1.398270128021429,8.551609822714287
1.7176795990008044e+18,1.0662769604988236,-1.860746851444706,8.772144115658824
1.7176795992008044e+18,1.0861990501803571,0.1729811359907143,9.280032055726192
1.7176795994008044e+18,0.44466034454023534,0.8940253973047056,10.422864454376471
1.7176795996008044e+18,0.12951864659765475,1.103454438377131,11.048132180952381
1.7176795998008044e+18,0.8433573817635295,1.3469515348141177,11.481100845529413
1.7176796000008044e+18,0.8851556618273809,1.0064739080773808,10.591964789678572
1.7176796002008044e+18,1.1413657217408928,0.08714218632711905,9.975891260666668
1.7176796004008044e+18,1.1441387057517645,-0.7954235093803529,8.998107506152941
1.7176796006008044e+18,1.3442749400016667,-1.4058580738607143,7.972995417476191
1.7176796008008044e+18,1.5214340525589412,-1.0367783761219649,8.622888284552939
1.7176796010008044e+18,0.997671732995357,0.5127014236489286,9.65743576892857
1.7176796012008044e+18,1.0757954678235295,1.2240519418388238,11.077572373882353
1.7176796014008044e+18,0.5090730175762858,1.0007660257821431,11.91085159202381
1.7176796016008044e+18,1.5247870640404761,0.8164759540869048,10.503291470488096
1.7176796018008044e+18,1.6970320484247055,0.37540572099470587,9.917718494505884
1.7176796020008044e+18,1.8831051304166668,-0.5527064244334523,9.333361410011905
1.7176796022008044e+18,1.1223921622358826,-1.6142755630244943,8.389077809282352
1.7176796024008044e+18,1.1740818744095238,-1.2873029751571425,8.253521851119046
1.7176796026008044e+18,1.364989204944706,-0.5745413448118823,9.6377300598
1.7176796028008044e+18,1.3542592755964284,0.46571022857809535,10.206755933440476
1.7176796030008044e+18,0.9716284201918336,1.2684772972571428,11.22091394384524
1.7176796032008044e+18,1.2632238573670589,0.3225278641049413,11.632038733411765
1.7176796034008044e+18,1.5781662334286906,0.4893429141097619,10.364326159440477
1.7176796036008044e+18,1.1418725621834824,-0.45883781672870594,9.459866030058823
1.7176796038008044e+18,1.0764283587738095,-1.2064633135130955,8.882357063726191
1.7176796040008044e+18,1.2165075105717649,-1.3095988666505882,8.53387527474118
1.7176796042008044e+18,1.2287001801083333,-0.9616868197892856,8.740714084523809
1.7176796044008044e+18,1.469559852495238,-0.0004735776695476141,9.80908442657143
1.7176796046008044e+18,1.522025226662353,0.41975035728352944,10.46827532835294
1.7176796048008044e+18,1.2820081448142855,0.5435374966545714,11.192043349999997
1.7176796050008044e+18,1.6743811677882354,0.30551067077480004,10.873052966894118
1.7176796052008044e+18,1.4196381711071429,-0.311423019733381,9.997383980488095
1.7176796054008044e+18,1.5672953198588235,-1.0371795275635296,9.13892508117647
1.7176796056008044e+18,1.3465858669285715,-1.1149520915258333,8.04132260022619
1.7176796058008044e+18,1.930441721547619,-1.2755489445100001,7.944815675416668
1.7176796060008044e+18,3.5205810619002356,-2.440967630134118,10.362308501941175
1.7176796062008044e+18,3.4356268452750007,-3.0111465359460716,9.458375692369046
1.7176796064008044e+18,2.0585840207917645,-1.5532445244917648,9.925808367564706
1.7176796066008044e+18,0.9073960915088096,0.594790906652738,10.064614443178572
1.7176796068008044e+18,0.2843623395929176,2.686094727235294,10.15050495364706
1.7176796070008044e+18,-0.3996156228607857,2.153757591369048,9.91409088307143
1.7176796072008044e+18,0.3251212175568571,0.43493468098066657,9.799869230916666
1.7176796074008044e+18,0.5774056994230589,1.1281208659602355,9.893265948435296
1.7176796076008044e+18,-1.2128334922035713,2.347700843546429,9.871472336095238
1.7176796078008044e+18,-0.08689112927303533,0.6458932093459999,9.87437681302353
1.7176796080008044e+18,0.03495942293944047,1.771710692455952,9.773558878059523
1.7176796082008044e+18,-1.3252401904682354,2.0509093999764705,9.808299603235294
1.7176796084008044e+18,-1.0863984489273808,1.9223196478452378,9.824502468166665
1.7176796086008044e+18,-0.7622493157821429,1.8986193041785713,9.765244506630953
1.7176796088008044e+18,-0.8129544587658823,1.8378531778235299,9.757712566188236
1.7176796090008044e+18,-1.017586995442857,1.8449089895595239,9.753700596940476
1.7176796092008044e+18,-0.5858931825447058,1.8490572186117644,9.746754848294117
1.7176796094008044e+18,-0.7954889039261905,1.8789248182976188,9.777091105833332
1.7176796096008044e+18,-0.7051120491517647,1.8583188491294118,9.785170140070587
1.7176796098008044e+18,-0.7537320100178572,1.8303241602023808,9.744909059392858
1.7176796100008044e+18,-0.7892932004821428,1.9178153035119043,9.803344499535715
1.7176796102008044e+18,-0.6802900314317646,1.9233508418235294,9.723688742670587
1.7176796104008044e+18,-0.910515303432143,1.9267741427500005,9.739411285952382
1.7176796106008044e+18,-0.9325428071541175,2.018557040835294,9.744238898329412
1.7176796108008044e+18,-0.8852624836380953,2.1252822904761905,9.72105568922619
1.7176796110008044e+18,-0.9873701123447056,2.088525976917647,9.71456782395294
1.7176796112008044e+18,-0.9316056150785714,2.1517742588809523,9.734102169630951
1.7176796114008044e+18,-0.9782086873071429,2.055833467428571,9.71359230222619
1.7176796116008044e+18,-0.9149942706611766,2.0357431341411765,9.730163461988235
1.7176796118008044e+18,-0.877802713995238,2.000446017297619,9.724587849190478
1.7176796120008044e+18,-0.8476046393905882,1.9046938601411765,9.678816301694118
1.7176796122008044e+18,-0.9112096528154762,2.0003569992619052,9.737634499845237
1.7176796124008044e+18,-0.9661443724258825,2.09542293557647,9.728699527070589
1.7176796126008044e+18,-0.943028493292857,2.110953836238095,9.72071380838095
1.7176796128008044e+18,-0.9590376232345238,2.1241428256071426,9.71122788242857
1.7176796130008044e+18,-0.973745102027059,2.129992184917647,9.726757161811767
1.7176796132008044e+18,-0.9326026241,2.1034335352619045,9.719631365285714
1.7176796134008044e+18,-0.9124360554364706,2.054181936200001,9.715158989823529
1.7176796136008044e+18,-0.8618149516130954,1.9836214865952382,9.731054283309524
1.7176796138008044e+18,-0.818398125735294,1.9552492759647053,9.681772119894118
1.7176796140008044e+18,-0.8623668707559526,1.9768631912619046,9.72592670575
1.7176796142008044e+18,-0.9399804934130953,2.1004709885833335,9.744328759940478
1.7176796144008044e+18,-0.9504643426247061,2.1082034251529413,9.71746746504706
1.7176796146008044e+18,-0.9521440132773811,2.1050572423333334,9.711598180583334
1.7176796148008044e+18,-0.977573621262353,2.1418155557764704,9.733231881035293
1.7176796150008044e+18,-0.9114090509357146,2.0389982377142855,9.723049686035715
1.7176796152008044e+18,-0.8819979492294117,2.030612652494118,9.730247912682353
1.7176796154008044e+18,-0.8322322602809525,1.9641584357857145,9.714503867238097
1.7176796156008044e+18,-0.841721653934524,1.9567271513571423,9.694763092761903
1.7176796158008044e+18,-0.8988110437117648,2.0438646654117654,9.731373887882356
1.7176796160008044e+18,-0.9443388503178572,2.101952283166667,9.72450243858333
1.7176796162008044e+18,-0.9776299189164708,2.1012501716470586,9.72399845127059
1.7176796164008044e+18,-0.9574708910535714,2.136790624738095,9.736238672642857
1.7176796166008044e+18,-0.9537016945741176,2.064119191764706,9.71332921415294
1.7176796168008044e+18,-0.8944314072559524,2.0380012222857142,9.725186166249998
1.7176796170008044e+18,-0.8641401231261903,1.9595187818214286,9.726553462785715
1.7176796172008044e+18,-0.8284233500011766,1.9326969244705885,9.704377309058824
1.7176796174008044e+18,-0.8803878149821429,2.014144220583333,9.713649306976189
1.7176796176008044e+18,-0.9202866252729411,2.0700027255764706,9.730444953035295
1.7176796178008044e+18,-0.9626268517285714,2.0889626712976193,9.723106668095237
1.7176796180008044e+18,-0.9497324270482352,2.1167049800235294,9.713751523623529
1.7176796182008044e+18,-0.9927650342333333,2.1307800838928577,9.734757400642858
1.7176796184008044e+18,-0.9195275590523811,2.068196370464286,9.720115741059525
1.7176796186008044e+18,-0.9046312311164707,2.034110384764706,9.721690043294117
1.7176796188008044e+18,-0.873925062872619,2.011334796797619,9.727123158261904
1.7176796190008044e+18,-0.814013632612941,1.941948001494118,9.693764394858823
1.7176796192008044e+18,-0.8981915563369048,2.0241855368333335,9.724815663892858
1.7176796194008044e+18,-0.9334612264376474,2.1002648997882356,9.729093776047058
1.7176796196008044e+18,-0.9633674905226189,2.095599869904762,9.715045066083333
1.7176796198008044e+18,-0.9792056963595238,2.114514580797619,9.712965533869047
1.7176796200008044e+18,-0.9674393135023527,2.143532753,9.727686152682352
1.7176796202008044e+18,-0.9239428866511904,2.057457151857143,9.716326985988095
1.7176796204008044e+18,-0.8697206546470586,2.0276075208705877,9.787179520541176
1.7176796206008044e+18,-0.715952477997619,1.653995925428571,9.752646605190474
1.7176796208008044e+18,-0.76822978328,1.5603244542470591,9.673091103023529
1.7176796210008044e+18,-0.8029913959226191,2.1144611635714288,9.765148322107144
1.7176796212008044e+18,-1.0424516966880955,2.0420533617500003,9.764792385535713
1.7176796214008044e+18,-0.9317405055552941,2.1310619157999997,9.725321466776473
1.7176796216008044e+18,-0.9972373268666667,2.098419995559524,9.710458800904764
1.7176796218008044e+18,-0.9718871439517647,2.135453473811765,9.740691858164704
1.7176796220008044e+18,-0.959977652345238,2.0780133605476188,9.785790023345237
1.7176796222008044e+18,-0.6881194910541176,1.7405849358352943,9.746800613411764
1.7176796224008044e+18,-0.7922877960178573,1.6316913990833333,9.736171018523809
1.7176796226008044e+18,-0.42782031035,2.095428976285715,9.711199476630954
1.7176796228008044e+18,-0.8990151391470587,1.9002213983058827,9.720317694717647
1.7176796230008044e+18,-0.9151549615916669,2.0427370242380953,9.75284601384524
1.7176796232008044e+18,-0.9486908393517648,2.0813756494470588,9.747898516858823
1.7176796234008044e+18,-1.0373171020857144,2.0426729236190475,9.703308832023808
1.7176796236008044e+18,-0.8114378305058823,2.0905528348588236,9.759172933258824
1.7176796238008044e+18,-1.2149414533869047,1.8760940220476192,9.729259604476189
1.7176796240008044e+18,-1.2029630995595237,1.813275306011905,9.73333308807143
1.7176796242008044e+18,-0.6522447445847059,2.1039702485764704,9.728418114600002
1.7176796244008044e+18,-0.883653027702381,1.8344831168690479,9.708920637761908
1.7176796246008044e+18,-0.9752652477152942,1.9191317305294116,9.737595221541177
1.7176796248008044e+18,-0.9534828549345236,1.9982348000119048,9.732820442702382
1.7176796250008044e+18,-1.0250359591294118,2.0307885954941174,9.737848629670587
1.7176796252008044e+18,-1.0358358295357144,2.019627774130952,9.716611907511906
1.7176796254008044e+18,-1.0326738862166667,2.032987696928571,9.73410223782143
1.7176796256008044e+18,-1.0309757863458824,2.0294936391411764,9.72594080527059
1.7176796258008044e+18,-0.9753600884059525,1.9851989150238096,9.734045289726192
1.7176796260008044e+18,-0.9343057548305881,1.9331578970352936,9.738383461447059
1.7176796262008044e+18,-0.8794050486333331,1.8783800177023808,9.732706433226191
1.7176796264008044e+18,-0.8629503740929413,1.8538991661999997,9.698972320541175
1.7176796266008044e+18,-0.9618862186142856,1.9673453101309524,9.743246214714288
1.7176796268008044e+18,-0.9962403228071428,2.005003795690476,9.741280601178572
1.7176796270008044e+18,-1.018392365842353,2.0192748827411764,9.72216859702353
1.7176796272008044e+18,-1.0213364674595238,2.0301106217142864,9.721625373452381
1.7176796274008044e+18,-1.0412508514941174,2.050972743611765,9.737820423352941
1.7176796276008044e+18,-0.9877230070988097,1.9895893094642862,9.72473036670238
1.7176796278008044e+18,-0.9667918373564708,1.9738077431176468,9.735849896564705
1.7176796280008044e+18,-0.9327450543654761,1.9247302753809525,9.73327610604762
1.7176796282008044e+18,-0.8739001360678573,1.8492459781904755,9.698437747440474
1.7176796284008044e+18,-0.9388661889400002,1.9318066526705884,9.72948782297647
1.7176796286008044e+18,-0.9876375567226192,2.0014323493571426,9.747148843023812
1.7176796288008044e+18,-1.0228120481399996,2.015664543835294,9.728896645929412
1.7176796290008044e+18,-1.0329302641845237,2.0156967327261905,9.717323984464286
1.7176796292008044e+18,-1.0452482699764707,2.0441039366235296,9.734723910176472
1.7176796294008044e+18,-0.9995162089928571,2.0068090842500004,9.726439555488094
1.7176796296008044e+18,-0.9686089115464288,1.9662236797857144,9.731680904107142
1.7176796298008044e+18,-0.9399359219564706,1.9163342419411764,9.742465310964704
1.7176796300008044e+18,-0.8802453896845237,1.8849496032142854,9.690547148297618
1.7176796302008044e+18,-0.9240834719976473,1.9282279786588237,9.731683551541176
1.7176796304008044e+18,-0.9903437161761904,1.9854481632023808,9.746322699940476
1.7176796306008044e+18,-1.0292867338152942,2.026650418882353,9.734639448282353
1.7176796308008044e+18,-1.0350382271904761,2.030765803166667,9.716270060714287
1.7176796310008044e+18,-1.035550976047619,2.035950237833333,9.737492084488096
1.7176796312008044e+18,-1.0139163704282355,2.0093587496941177,9.726306713270587
1.7176796314008044e+18,-0.981114255511905,1.9597110607023809,9.728177104654762
1.7176796316008044e+18,-0.9477337086882355,1.947310738011764,9.740466589082352
1.7176796318008044e+18,-0.8960159435119046,1.88769492922619,9.72621151379762
1.7176796320008044e+18,-0.8882509568235294,1.8878878088117648,9.69990126662353
1.7176796322008044e+18,-0.9787784062535716,1.9470632842738098,9.750851892357144
1.7176796324008044e+18,-0.9970948987202382,2.0378872936785712,9.740255196880952
1.7176796326008044e+18,-1.0349169107035294,2.0315381036235296,9.739569361011766
1.7176796328008044e+18,-1.0015387024380953,1.9415120822738092,9.783557449130951
1.7176796330008044e+18,-0.7242616709552943,1.747573384105882,9.736863349505882
1.7176796332008044e+18,-0.7325847297785715,1.8857828194404762,9.811833381726192
1.7176796334008044e+18,-1.1262945778211764,1.520596563082353,9.78280558864706
1.7176796336008044e+18,-0.6904682006142857,1.6895784764166668,9.755865539833334
1.7176796338008044e+18,-0.4692887784511903,1.9226045097857145,9.744374967785713
1.7176796340008044e+18,-0.9426911845070586,1.8353090398470588,9.781489484470589
1.7176796342008044e+18,-0.8453856667369047,1.8167897533690474,9.792373838773809
1.7176796344008044e+18,-1.0063895390082354,1.5396758023176471,9.800691929988234
1.7176796346008044e+18,-0.9507339540023809,1.506185710440476,9.765084323464285
1.7176796348008044e+18,-1.0406139310599998,1.9416031472470585,9.785564332941176
1.7176796350008044e+18,-1.0701329552095236,1.946668043047619,9.751030025011906
1.7176796352008044e+18,-0.8531124889833334,2.1239398831904763,9.743210622309523
1.7176796354008044e+18,-1.2170810895882351,1.6583210987176469,9.713920413729412
1.7176796356008044e+18,-1.364834695952381,1.7192039050119052,9.69661462875
1.7176796358008044e+18,-0.81459776304,2.02597479262353,9.71439892267059
1.7176796360008044e+18,-1.3902940465714284,1.9879727150833337,9.702504067214287
1.7176796362008044e+18,-1.0468599095023527,1.7288319574117643,9.813947419811766
1.7176796364008044e+18,-1.3770160263809523,1.907656479440476,9.779683362869049
1.7176796366008044e+18,-0.9737257066809523,1.9675696335714286,9.662004187035715
1.7176796368008044e+18,0.2579286862306471,3.179431413188235,9.39127991617647
1.7176796370008044e+18,0.354867705827619,2.8204150597261908,9.560245150595238
1.7176796372008044e+18,-1.2386727922011764,2.048425095211765,9.708385209435296
1.7176796374008044e+18,-1.276830815142857,2.0117478357261906,9.718178556011903
1.7176796376008044e+18,-1.1224942151011765,2.2078293099176474,9.701590313635295
1.7176796378008044e+18,-0.9479530141047621,2.143239140464286,9.710352102952381
1.7176796380008044e+18,-1.0508550639785716,1.7082332359166668,9.75491122967857
1.7176796382008044e+18,-1.0632120307835298,1.6749512223176473,9.771495964917646
1.7176796384008044e+18,-0.6486792606952381,2.1190936892380954,9.646450848738096
1.7176796386008044e+18,-0.761097064435294,2.197920190564706,9.729846741152942
1.7176796388008044e+18,-0.9786573407119048,2.1436272575833333,9.731139716607142
1.7176796390008044e+18,-1.1593718388705883,2.06738469462353,9.700436098482353
1.7176796392008044e+18,-0.9496087588011903,2.1975227367738093,9.716070583892858
1.7176796394008044e+18,-0.8820649321595239,2.2056982205,9.700260775476188
1.7176796396008044e+18,-1.1027323169199998,2.000726999988235,9.718621568035294
1.7176796398008044e+18,-0.900662718095238,2.009084396369048,9.724676904261903
1.7176796400008044e+18,-0.7118682545764707,2.0146335068470584,9.663727479870587
1.7176796402008044e+18,-0.9652867281380954,1.9707529402738098,9.708123002666666
1.7176796404008044e+18,-0.9683401388176471,2.1335110497176473,9.735005367494116
1.7176796406008044e+18,-0.9872102574083331,2.163994743702381,9.71151284940476
1.7176796408008044e+18,-1.022276512945238,2.1396392215357145,9.69707032615476
1.7176796410008044e+18,-1.0326085434035295,2.1569888535764705,9.729727139164705
1.7176796412008044e+18,-0.9222479746654761,2.206239444833334,9.686331226702382
1.7176796414008044e+18,-0.943060665944706,2.0830928522588237,9.70319484257647
1.7176796416008044e+18,-0.9360779140821429,2.0276608311309525,9.719261010440475
1.7176796418008044e+18,-0.8073841017800002,2.0285787428235302,9.724955592423528
1.7176796420008044e+18,-0.8432136128369047,1.9393044170833331,9.66422610052381
1.7176796422008044e+18,-0.9277564443273809,2.104686925904762,9.73190883229762
1.7176796424008044e+18,-0.9823311147011765,2.1155507872352945,9.717889651105882
1.7176796426008044e+18,-0.998205851954762,2.152372459559524,9.706328357964287
1.7176796428008044e+18,-1.0149016562658824,2.1429134284823528,9.695340796058824
1.7176796430008044e+18,-1.0291131415214285,2.165646930535714,9.71621302192857
1.7176796432008044e+18,-0.9935914565494118,2.1503452693647063,9.706206983647059
1.7176796434008044e+18,-0.926763003777381,2.0896748020714284,9.711769194833336
1.7176796436008044e+18,-0.904657876204762,2.020055069857143,9.722280581821428
1.7176796438008044e+18,-0.8395323802494119,1.996828105894118,9.68357380135294
1.7176796440008044e+18,-0.8607823408761907,1.9953826367738092,9.701514232690476
1.7176796442008044e+18,-0.9449467722070589,2.0757736542235294,9.723688765117645
1.7176796444008044e+18,-0.9751606881726192,2.147501352297619,9.726012252630953
1.7176796446008044e+18,-1.0081172936011764,2.1429134256705886,9.697874360941174
1.7176796448008044e+18,-0.9965251854488095,2.147672258702381,9.695987962535714
1.7176796450008044e+18,-1.0419888021642858,2.159465469095238,9.716668821476192
1.7176796452008044e+18,-0.9650464871611766,2.110145835352941,9.70457431572941
1.7176796454008044e+18,-0.9422308894511906,2.1017243848452387,9.710572753642856
1.7176796456008044e+18,-0.9043250932376472,2.0327309959529414,9.715890940458824
1.7176796458008044e+18,-0.8471874041202382,1.9790067574166672,9.683909972452382
1.7176796460008044e+18,-0.9036494717847058,2.0320272249529414,9.704743228223528
1.7176796462008044e+18,-0.9552204985083333,2.0911845678571432,9.712908653976191
1.7176796464008044e+18,-0.9879793843821428,2.1392119299523813,9.712823231988095
1.7176796466008044e+18,-1.0107353273952941,2.1426037789411763,9.698352881082354
1.7176796468008044e+18,-1.010625748397619,2.1458491540357145,9.696785608904761
1.7176796470008044e+18,-1.0311446904964705,2.1590157312352942,9.716763597400004
1.7176796472008044e+18,-0.9647063329083333,2.120297236130953,9.707296939059525
1.7176796474008044e+18,-0.9137556328435293,2.061022598611765,9.71223131062353
1.7176796476008044e+18,-0.883496350472619,2.0110463812142854,9.721995637464286
1.7176796478008044e+18,-0.8258941287142857,1.941088351404762,9.684621992511904
1.7176796480008044e+18,-0.9217504683623527,2.053618928941176,9.709219259329412
1.7176796482008044e+18,-0.9631111153476191,2.100670385952381,9.717124564238095
1.7176796484008044e+18,-1.0103412158576472,2.12864095462353,9.71102077257647
1.7176796486008044e+18,-1.014927122547619,2.1504638961190476,9.695930946392856
1.7176796488008044e+18,-1.0357051316705883,2.161239638035294,9.7072485868
1.7176796490008044e+18,-1.0065522428333333,2.1412914140000003,9.705074923428569
1.7176796492008044e+18,-0.9639941801904763,2.0933779762261904,9.711854696261906
1.7176796494008044e+18,-0.91699297358,2.053069980011764,9.716003474117647
1.7176796496008044e+18,-0.8870179298345239,2.022465691654762,9.707667191833334
1.7176796498008044e+18,-0.8409575223941177,1.9480321028823533,9.670455551117646
1.7176796500008044e+18,-0.9592370213785713,2.0800465487857145,9.71194017504762
1.7176796502008044e+18,-1.0021493097894119,2.152006163352941,9.735624773352942
1.7176796504008044e+18,-0.9847034933083334,2.16333954672619,9.701371703833333
1.7176796506008044e+18,-1.0476860028130952,2.1199554062738097,9.689521630654761
1.7176796508008044e+18,-1.0163092024094116,2.182521691082353,9.716904393341176
1.7176796510008044e+18,-1.0097141883190475,2.127076898297619,9.703878595690474
1.7176796512008044e+18,-0.918907235649412,2.0814319751529413,9.713610738870587
1.7176796514008044e+18,-0.9098423244023811,2.028800266119048,9.716013726690479
1.7176796516008044e+18,-0.8268328259976471,1.9678467849294112,9.660292995658825
1.7176796518008044e+18,-0.9293765837202379,2.026706538035714,9.725357044261905
1.7176796520008044e+18,-0.9578127250595239,2.097679365285715,9.730997233166667
1.7176796522008044e+18,-1.012677733332941,2.146601197364706,9.707642712294119
1.7176796524008044e+18,-0.9917680230940478,2.13958224797619,9.69573150363095
1.7176796526008044e+18,-1.0177730398435292,2.136945466388235,9.710767476682351
1.7176796528008044e+18,-1.0161520179059522,2.152201538988095,9.709148406964285
1.7176796530008044e+18,-0.959472616975294,2.1074996667647063,9.708881355741177
1.7176796532008044e+18,-0.9335426638500001,2.0434705416785715,9.709917590738096
1.7176796534008044e+18,-0.9005238463714285,1.995735150047619,9.712937150630953
1.7176796536008044e+18,-0.8937825967211765,2.0069729567294123,9.704405436729413
1.7176796538008044e+18,-0.9221767527714284,2.036042825154762,9.712338924404762
1.7176796540008044e+18,-0.978812256272941,2.088075576235294,9.718058642223529
1.7176796542008044e+18,-0.9984052436369049,2.1236870743452383,9.699320815821428
1.7176796544008044e+18,-1.0188012158464286,2.123772530357143,9.70783808117857
1.7176796546008044e+18,-1.0053022076047058,2.1332858367294114,9.703223037729412
1.7176796548008044e+18,-0.9669282351107142,2.1190723379999996,9.694563740702382
1.7176796550008044e+18,-1.0276258405717649,2.0834869749294116,9.70274450632941
1.7176796552008044e+18,-1.0057261522238095,2.122576114702381,9.69031916347619
1.7176796554008044e+18,-1.0522296765058823,2.162309374529412,9.71321651235294
1.7176796556008044e+18,-0.9989179933250001,2.0985909274523813,9.715899615119046
1.7176796558008044e+18,-0.9357645710285712,2.076913085797619,9.725328536261904
1.7176796560008044e+18,-0.8632072504811764,1.9668333559058824,9.672285304352942
1.7176796562008044e+18,-0.8760721896369048,2.0153085760119045,9.698779526166668
1.7176796564008044e+18,-0.9890591712635295,2.096492677611765,9.721492980447058
1.7176796566008044e+18,-0.9995446914488096,2.1507772377619054,9.714589266488096
1.7176796568008044e+18,-1.012649588027059,2.1571296103294113,9.689795112611767
1.7176796570008044e+18,-1.0208522096285715,2.1568732375595236,9.708151533476192
1.7176796572008044e+18,-0.9972658114238095,2.1352523821071427,9.701742058714284
1.7176796574008044e+18,-0.9499857825317648,2.097928369741177,9.712343934
1.7176796576008044e+18,-0.9239642570440475,2.0421922448809524,9.712111018940476
1.7176796578008044e+18,-0.8741825622717646,2.012634804682353,9.674987736917645
1.7176796580008044e+18,-0.9001998184690475,2.0272157277142857,9.702140853535713
1.7176796582008044e+18,-0.9869760064470591,2.0971682998117647,9.716397700541178
1.7176796584008044e+18,-0.9757588896476191,2.1988615932499997,9.715529362333333
1.7176796586008044e+18,-1.0205103740071428,2.1406647194047617,9.693993977059524
1.7176796588008044e+18,-0.9982644992976473,2.172837781905882,9.708881434258823
1.7176796590008044e+18,-1.0078625983785716,2.1332298745,9.706641764857144
1.7176796592008044e+18,-0.9426102582129413,2.12196921177647,9.70961328392941
1.7176796594008044e+18,-0.9049712192488096,2.0391976379523813,9.716127599940474
1.7176796596008044e+18,-0.8585940304964707,2.0024617812588232,9.692019025023528
1.7176796598008044e+18,-0.8758193786654761,2.0182889303095237,9.691031342488095
1.7176796600008044e+18,-0.9610031509761905,2.1008413093690472,9.719688256559525
1.7176796602008044e+18,-0.9896221827247058,2.133539202611765,9.713498059388233
1.7176796604008044e+18,-1.0345824538833333,2.181371175071429,9.802625281595237
1.7176796606008044e+18,-0.7594783905658823,1.9564140207764704,9.703715773235295
1.7176796608008044e+18,-0.8730099477869049,1.5074212991190477,9.83145302829762
1.7176796610008044e+18,-0.48550019728917654,1.2550460316976473,9.835725716764708
1.7176796612008044e+18,-0.6490175350905952,1.543562884857143,9.816907417369046
1.7176796614008044e+18,-1.1066199360738094,1.2431746264785717,9.907165266309523
1.7176796616008044e+18,-0.22618507892352938,0.994481723917553,10.072632676847057
1.7176796618008044e+18,-0.16083898572988092,0.8533047659142857,10.386317354880951
1.7176796620008044e+18,0.6967618041625883,-1.3622022701248824,11.953862751058825
1.7176796622008044e+18,2.048562400770238,-3.005787606726191,9.205163825119046
1.7176796624008044e+18,0.6565201578498823,-2.242352804,9.192348412929412
1.7176796626008044e+18,1.1950475580619047,-1.8195635874761904,7.183310520023809
1.7176796628008044e+18,1.067120566265476,-1.9408284142142855,7.965005085583333
1.7176796630008044e+18,1.211732424691765,-0.7307997072505882,10.095804304047059
1.7176796632008044e+18,1.1655823616678571,-0.04646064087554762,11.327042001071428
1.7176796634008044e+18,1.6674560476470588,-0.18129854085514116,11.559842289058823
1.7176796636008044e+18,1.6266351398690477,-0.9856007950821427,10.432792197583334
1.7176796638008044e+18,1.236519252544706,-2.150454348670588,8.615048229000001
1.7176796640008044e+18,1.5533941146666668,-2.2456711714761903,7.997115901511904
1.7176796642008044e+18,1.369278512525,-2.0307408670119047,8.37497887720238
1.7176796644008044e+18,1.517746285797647,-0.30789645355682355,10.030314916682356
1.7176796646008044e+18,1.8584861216428574,0.1582111538420238,11.348552454666665
1.7176796648008044e+18,1.843638178885882,-0.018393064013199997,11.837564591529413
1.7176796650008044e+18,1.4845007622464288,-0.7509403866959524,10.003312610059524
1.7176796652008044e+18,1.613599949694118,-1.751310408764706,8.420670122329412
1.7176796654008044e+18,1.7394716782071435,-2.2141941615714282,7.366735367511904
1.7176796656008044e+18,1.424110474870476,-1.1641651846226193,8.794502718130952
1.7176796658008044e+18,1.6223091216800232,0.07901593050517644,11.243331718188234
1.7176796660008044e+18,1.7187694920761907,0.18037325014746428,12.252501749047621
1.7176796662008044e+18,1.3695144402384705,-0.5342891468884706,10.582567775435294
1.7176796664008044e+18,1.7264108601428572,-1.9497302798333334,8.144794401726191
1.7176796666008044e+18,1.7296694489058826,-2.3703336252588234,7.241036723600001
1.7176796668008044e+18,1.5463830036889286,-0.7221018882949404,8.704857320916668
1.7176796670008044e+18,2.289393600964286,0.4641150142199286,11.809544688809524
1.7176796672008044e+18,2.2248464766588234,0.11717793210823527,11.813168312235296
1.7176796674008044e+18,2.2390125804880956,-0.34662101264835715,10.482446840535715
1.7176796676008044e+18,1.7298805727058824,-1.3495871583088705,9.178726908788235
1.7176796678008044e+18,1.5781911668345237,-2.1281273251428576,6.713056814095237
1.7176796680008044e+18,1.2751738884400001,-1.072839624354118,8.654821956788233
1.7176796682008044e+18,1.4345434673345236,0.10395248032614282,10.930000771
1.7176796684008044e+18,2.001446606202381,0.9756057794469047,11.733134576547618
1.7176796686008044e+18,1.537149265927059,-0.2593151176276471,10.887740684847058
1.7176796688008044e+18,2.103127308175,-1.0759262992214282,10.987350236916669
1.7176796690008044e+18,1.341050414808012,-0.6267295114905294,6.414432649058823
1.7176796692008044e+18,0.6416752771682739,-1.494748593442857,7.688594874845237
1.7176796694008044e+18,2.705265463772941,-1.5666584004282353,8.040971424964706
1.7176796696008044e+18,5.360136375435238,-0.17419177619851184,10.595518373202381
1.7176796698008044e+18,5.105685317773809,1.2721484327304762,9.6354766345
1.7176796700008044e+18,5.0252372012705875,3.547370123864707,7.993692055894118
1.7176796702008044e+18,0.3943848870929762,2.902622081243904,10.054430677964286
1.7176796704008044e+18,-1.2146812248117647,1.6009250202917646,10.032081390800002
1.7176796706008044e+18,-0.3154110537245238,1.8405577554761905,9.903073969011903
1.7176796708008044e+18,0.1740391385112824,2.108622156835294,9.714905716364708
1.7176796710008044e+18,-0.28362425648515477,1.9418289874523809,9.769659882535715
1.7176796712008044e+18,-0.42949029927619053,1.7869969790714284,9.836003666892857
1.7176796714008044e+18,-0.5249747328882353,1.5996406499058824,9.75663232242353
1.7176796716008044e+18,-0.3699759585535714,1.8513895500714288,9.79764021020238
1.7176796718008044e+18,-0.6023895793117646,1.8504542000117643,9.825000235682353
1.7176796720008044e+18,-0.5249254689345236,1.8019806089404764,9.813898597464286
1.7176796722008044e+18,-0.5754210633388236,1.858093647364706,9.823071872494118
1.7176796724008044e+18,-0.5229029666142858,1.771272713190476,9.819449742642856
1.7176796726008044e+18,-0.5532975076214286,1.6906288990119052,9.803219908797619
1.7176796728008044e+18,-0.5162479681082353,1.6793638650823526,9.817223548988236
1.7176796730008044e+18,-0.5229029616428571,1.5772831680952382,9.788620835261906
1.7176796732008044e+18,-0.40841611781176473,1.7410705454470587,9.82289592527059
1.7176796734008044e+18,-0.7338131864880953,1.609386876940476,9.826930931714283
1.7176796736008044e+18,-0.5132358256529412,1.6845154691647057,9.825376723870589
1.7176796738008044e+18,-0.6586956481190476,1.6877518097857143,9.82074594502381
1.7176796740008044e+18,-0.6364196091880953,1.7259230287738094,9.863239890083333
1.7176796742008044e+18,-0.5566444428505882,1.5990776328352938,9.826492118882353
1.7176796744008044e+18,-0.8007516882261905,1.502518137202381,9.740419035845239
1.7176796746008044e+18,-0.6356146275941176,1.7018951135764704,9.859287901223531
1.7176796748008044e+18,-0.726065001320238,1.594830535738095,9.787787607761905
1.7176796750008044e+18,-0.7418207645423529,1.6233718059176467,9.809717806741178
1.7176796752008044e+18,-0.7493665310642857,1.6934490062142853,9.81409091047619
1.7176796754008044e+18,-0.8003172746714284,1.6669285553452386,9.807994910678572
1.7176796756008044e+18,-0.7885124746517647,1.6552948881764704,9.815481679658824
1.7176796758008044e+18,-0.7907281780559523,1.6863844934404757,9.80470836740476
1.7176796760008044e+18,-0.7788145079364706,1.6973522592823524,9.825848220458825
1.7176796762008044e+18,-0.7639549211392859,1.6536540956190477,9.813111748059525
1.7176796764008044e+18,-0.7628494536152941,1.633590579035294,9.817466365682352
1.7176796766008044e+18,-0.7581687023226191,1.606424333,9.818449270273808
1.7176796768008044e+18,-0.7390830942535714,1.5485123282738098,9.774801560845237
1.7176796770008044e+18,-0.7473101812294118,1.5602294473294114,9.81357795497647
1.7176796772008044e+18,-0.7818690410678573,1.6387274392261906,9.821856918892857
1.7176796774008044e+18,-0.810009173787059,1.6303250818823531,9.818905493882353
1.7176796776008044e+18,-0.8192568925202381,1.6602058751309523,9.810747407821427
1.7176796778008044e+18,-0.8040341524541176,1.6659922067058828,9.825844742270588
1.7176796780008044e+18,-0.7956562553166667,1.6308653056666664,9.812139658845236
1.7176796782008044e+18,-0.7791343877702381,1.610668742904762,9.82182487992857
1.7176796784008044e+18,-0.8007299486317646,1.5855089257294113,9.81473567070588
1.7176796786008044e+18,-0.7783652622059524,1.5493953923690478,9.78758112597619
1.7176796788008044e+18,-0.7870943749670588,1.5571328513411766,9.82538375857647
1.7176796790008044e+18,-0.8375733807071428,1.5969669875595238,9.7994526455
1.7176796792008044e+18,-0.8258475450917647,1.6179950055294121,9.822892447176468
1.7176796794008044e+18,-0.8063171349845236,1.646019842,9.798213504690475
1.7176796796008044e+18,-0.8430782989392858,1.632403549761905,9.810451859607142
1.7176796798008044e+18,-0.8664621956211764,1.6712564174235296,9.819820482705882
1.7176796800008044e+18,-0.8151477908749999,1.6242565498214285,9.810597817214287
1.7176796802008044e+18,-0.829236208695294,1.6053552710588241,9.811255645882351
1.7176796804008044e+18,-0.8048038163428574,1.5942323293095237,9.81675076488095
1.7176796806008044e+18,-0.8163783031376469,1.5704482148352945,9.796398836
1.7176796808008044e+18,-0.7815841798261906,1.5351239158690477,9.79918920434524
1.7176796810008044e+18,-0.8090197472357145,1.590301263857143,9.809533153321429
1.7176796812008044e+18,-0.8400778027152939,1.6107883860000003,9.82490164817647
1.7176796814008044e+18,-0.8346891772190478,1.64505132752381,9.79964495847619
1.7176796816008044e+18,-0.8783875998282353,1.6348855116235292,9.818402357717646
1.7176796818008044e+18,-0.8622920988571428,1.6704608301428574,9.82118029825
1.7176796820008044e+18,-0.858815718397647,1.6000347572705884,9.807268714988236
1.7176796822008044e+18,-0.8275427534476191,1.5716144627023811,9.823398703630952
1.7176796824008044e+18,-0.8280483839,1.5535543432619048,9.815330028619048
1.7176796826008044e+18,-0.7988086518117644,1.5094171551294115,9.782520585929412
1.7176796828008044e+18,-0.8291059271238096,1.546461338047619,9.812492154952382
1.7176796830008044e+18,-0.8166527748164705,1.5953054119529413,9.826991889082354
1.7176796832008044e+18,-0.823661541657143,1.6272760728214288,9.817551908083331
1.7176796834008044e+18,-0.9217293578011762,1.5758531668588236,9.816224188011766
1.7176796836008044e+18,-0.8541557873833332,1.5942038368452376,9.814500309261906
1.7176796838008044e+18,-0.8330868482607143,1.3354015578214284,9.88204059154762
1.7176796840008044e+18,-1.0401142609105885,1.1690311011058823,9.843069502894117
1.7176796842008044e+18,-0.05696484524707142,1.5630437376785717,9.85948324184524
1.7176796844008044e+18,-0.0273204044179647,1.0928408040541175,9.89995886844706
1.7176796846008044e+18,-0.4131179799607142,1.0102162481357142,9.877874533154763
1.7176796848008044e+18,-0.6202935274870588,1.2749099786941178,9.967876288152942
1.7176796850008044e+18,-0.02418104143109523,1.5934240505452384,9.828636441940477
1.7176796852008044e+18,-0.2718737916989524,1.4709556670476192,9.878843080476193
1.7176796854008044e+18,-0.03188436813494117,1.37953262888,9.877526114929413
1.7176796856008044e+18,0.05387055905709523,1.407207601107143,9.89620169013095
1.7176796858008044e+18,0.4052561856957647,1.5419349102435296,9.847612313600001
1.7176796860008044e+18,-0.14067803372261903,1.031053745380119,9.905990214595239
1.7176796862008044e+18,0.008065095315595242,1.544723682829762,9.91864510961905
1.7176796864008044e+18,-0.0978031075162353,-0.5721098174351764,11.554124131211765
1.7176796866008044e+18,5.93452417292619,-3.831507237030953,11.804474189261905
1.7176796868008044e+18,-0.24506374117294122,-11.359299227470586,0.7632998559564704
1.7176796870008044e+18,2.911812356333809,-14.531184672845235,5.762226689300238
1.7176796872008044e+18,9.089970765317647,-1.224252540620706,6.280483829211765
1.7176796874008044e+18,3.851066433217857,-3.80786743612619,10.66779085522619
1.7176796876008044e+18,7.651940609690477,-0.5359459824690476,7.7484404134047615
1.7176796878008044e+18,4.526889663727411,2.9202500104705886,6.235386164000001
1.7176796880008044e+18,-3.946700998659524,6.894676320607144,8.278721221666665
1.7176796882008044e+18,-0.9348265413908233,7.2554957053294125,7.583903553917647
1.7176796884008044e+18,-0.09750396495166666,8.023404972892857,4.464558381523809
1.7176796886008044e+18,-0.2775216851317648,8.067130543188236,4.268858935225882
1.7176796888008044e+18,-1.924943932529762,9.627724886059523,2.4238830494720234
1.7176796890008044e+18,-1.678917599586905,9.455530643464284,1.2556265607011905
1.7176796892008044e+18,-1.3989778357082354,9.644067539858824,0.8132922654339532
1.7176796894008044e+18,-1.252656905357143,9.660327014452381,0.20267065264961898
1.7176796896008044e+18,-1.2573895987176473,9.678281425035294,0.14024755837327058
1.7176796898008044e+18,-1.3286503779999999,9.65573725245238,-0.46624434065714276
1.7176796900008044e+18,-1.3112386506941176,9.671271806576472,-0.1440690369428
1.7176796902008044e+18,-1.3358324141428572,9.661405983369047,-0.10458985010292857
1.7176796904008044e+18,-1.3699586121666667,9.671660945511904,0.07681245537414286
1.7176796906008044e+18,-1.3445974209529412,9.634035312435293,-0.4084583399546353
1.7176796908008044e+18,-1.3878691792857143,9.637050526357143,-1.2933099551714287
1.7176796910008044e+18,,,
