Timestamps,Gyro_X,Gyro_Y,Gyro_Z
1.7176795365884298e+18,0.003643524324129413,-0.11583640255128587,0.025914296732341177
1.7176795367884298e+18,-0.025153817416738097,-0.11575555546384526,-0.003294212000894048
1.7176795369884298e+18,-0.43822901412341175,-1.0192094259341176,0.4998158866406589
1.7176795371884298e+18,-1.0296921332845237,-1.39930744518225,0.7760778103602382
1.7176795373884298e+18,-0.5877069285658824,-0.13633392055289764,0.5432273651084588
1.7176795375884298e+18,-0.5722529802287382,-0.5142261318436904,1.1831293338882263
1.7176795377884298e+18,-0.2952864699578572,-1.215076098470238,0.2056191857202381
1.7176795379884298e+18,-1.8737712810458822,-3.631309995917647,-0.04152324308647058
1.7176795381884298e+18,-3.312871030416667,-0.6095319392596428,3.9685964725952383
1.7176795383884298e+18,-4.729276467975717,-1.6134497395725884,8.160601346658822
1.7176795385884298e+18,3.709945367940476,-3.074768766072619,3.2967053560672617
1.7176795387884298e+18,0.6455954845997176,-1.153472761902353,-0.33824768369964703
1.7176795389884298e+18,-0.5341513895163571,-2.035674845785595,-0.7558653078494179
1.7176795391884298e+18,-0.5281529029259167,-0.23523255337574997,-0.04738520128386904
1.7176795393884298e+18,-0.5659167463130588,-0.13368032883148237,1.8976455122037177
1.7176795395884298e+18,-0.005516714661071424,-0.6368119104808095,-0.2220211621020238
1.7176795397884298e+18,0.3765720634699294,-0.561831260277106,0.3865998393077647
1.7176795399884298e+18,-0.4605133839738571,-0.18939900471976187,0.5230043331797619
1.7176795401884298e+18,0.3720347268088235,-1.1431808859139445,0.14615329159518822
1.7176795403884298e+18,0.5647819208817619,-0.3696625794035833,0.8079045837845239
1.7176795405884298e+18,0.09027267982911905,-0.11063607479938332,0.10372768201767857
1.7176795407884298e+18,-0.08942803914042355,0.13371985480611762,-0.1353206347468
1.7176795409884298e+18,0.009562668383309523,-0.16688492619608336,-0.027989894017654757
1.7176795411884298e+18,-0.11230965741768235,0.0019780681385764744,-0.08824227777418822
1.7176795413884298e+18,-0.686279621852381,-0.34487418031785716,-0.04340651561513095
1.7176795415884298e+18,-0.7402606382471765,-0.3928996526560965,0.05981991294778823
1.7176795417884298e+18,0.08372697967169047,-0.11740629811097618,0.1695537464010833
1.7176795419884298e+18,0.33581419041190474,-0.1308958406020738,0.12843790904397498
1.7176795421884298e+18,0.28039326554211763,0.09458969768764353,0.03421463286344706
1.7176795423884298e+18,0.2201640783910476,-0.035690932727476185,-0.08155538112167857
1.7176795425884298e+18,0.18404289017635292,0.09647254528156472,-0.12617948523670589
1.7176795427884298e+18,-0.12808885272935594,0.010638923367607142,-0.04476637779633214
1.7176795429884298e+18,-0.1728266550329412,-0.08065878735095294,0.07093014626830589
1.7176795431884298e+18,-0.30769248900595236,-0.0397050718328131,-0.007097462828571427
1.7176795433884298e+18,-0.2690564014259762,-0.018609025499991667,0.008740933541322621
1.7176795435884298e+18,0.11647060663038705,0.0771482119838353,0.014753758096270587
1.7176795437884298e+18,0.336494119127381,0.010973434282023816,0.00021815982758571344
1.7176795439884298e+18,0.34266914164117646,-0.01628267271552941,0.08500837899858824
1.7176795441884298e+18,0.02457932976783333,-0.008799109026976192,0.028171693903416666
1.7176795443884298e+18,-0.15869093035255294,0.053361100721035296,-0.07905800829918942
1.7176795445884298e+18,-0.3299738718642857,-0.05315825535589285,-0.005861225077666666
1.7176795447884298e+18,-0.15597693936861906,0.023444899649815477,-0.009097260913714286
1.7176795449884298e+18,0.1277182804618118,0.09304461409334118,-0.016435384472588237
1.7176795451884298e+18,0.4155233909535714,0.08572950413563928,-0.03197494537947619
1.7176795453884298e+18,0.21356836943681176,-0.003950744138599996,0.048400662238469415
1.7176795455884298e+18,0.12845245233029762,0.01893626597422619,-0.02857165364185714
1.7176795457884298e+18,-0.21825213292082357,0.0025170498396211763,0.005971930200445884
1.7176795459884298e+18,-0.3215383607011905,-0.12110046918273809,0.015038477910999997
1.7176795461884298e+18,-0.14213106790153573,-0.06024117521947977,-0.01233329711252381
1.7176795463884298e+18,0.023225670307670584,0.17445977390164705,-0.07109543440105884
1.7176795465884298e+18,0.30938323054523803,0.0063775360188928565,0.034534686083535715
1.7176795467884298e+18,0.3250012851752941,0.029624295567152945,0.0037082024144941173
1.7176795469884298e+18,0.11147962456953689,0.10188786867717857,-0.02921886080705952
1.7176795471884298e+18,-0.18118448230517645,0.0006773217367847103,0.06643143602562353
1.7176795473884298e+18,-0.3464085732857142,-0.026797287557261903,-0.03743621002842738
1.7176795475884298e+18,-0.26952908152976196,-0.09260153528608331,-0.03731258702371429
1.7176795477884298e+18,0.0023715242356117734,0.0010869489712905874,-0.002932066952704706
1.7176795479884298e+18,0.2864237348773809,-0.00950449242614643,0.00045813519469047807
1.7176795481884298e+18,0.3457754803481176,-0.11874691042770938,0.07736919554205882
1.7176795483884298e+18,0.19899531294047618,0.04446095414590119,-0.0029306122763821437
1.7176795485884298e+18,-0.16690502994141174,-0.0626998777404847,-0.013963249648952946
1.7176795487884298e+18,-0.23613609640238098,-0.05973940734336071,-0.031233202367166667
1.7176795489884298e+18,-0.3066380512697619,0.04382101905933333,0.009868092115277383
1.7176795491884298e+18,-0.0827230912033647,-0.1822822106661941,0.08608634484408235
1.7176795493884298e+18,0.07048013789069048,-0.07736671361038691,0.015482069403035712
1.7176795495884298e+18,-0.07432933244698824,-0.12328874043777883,-0.03688080203576471
1.7176795497884298e+18,0.06273819475547619,-0.03333480736861905,0.023379451874904762
1.7176795499884298e+18,0.11465513258588235,-0.026774872986576468,0.08147265199327058
1.7176795501884298e+18,0.37642644362845235,0.37596194277619044,-0.18628659882178572
1.7176795503884298e+18,0.2242382115952143,0.5271102775392856,-0.13453183597369167
1.7176795505884298e+18,0.20089598552647062,0.2393461253067882,-0.08852973447049411
1.7176795507884298e+18,0.007264719346630954,-0.0023488528118714336,0.04804604573636786
1.7176795509884298e+18,-0.023564331407612948,0.07357655207188234,0.022012060432341177
1.7176795511884298e+18,-0.02129239010217857,0.0494495398847619,0.039835967727511905
1.7176795513884298e+18,0.05779333700574118,0.006139014850988235,0.006510912893082351
1.7176795515884298e+18,0.060699310565059526,0.01623835622822619,-0.025357433322950002
1.7176795517884298e+18,-0.10929075562654762,-0.10361860191369048,-0.061702845130238076
1.7176795519884298e+18,-0.00501613388428353,0.04847432253091764,-0.004937083175764707
1.7176795521884298e+18,0.08957638772361906,0.06402988214866309,-0.024659322056619047
1.7176795523884298e+18,0.040423715135376466,0.0933823765197647,-0.05062845789870587
1.7176795525884298e+18,0.034316526226999995,0.03156044175457738,-0.0320403931572619
1.7176795527884298e+18,0.05506249048174119,0.04694361211199999,0.034128395771881176
1.7176795529884298e+18,0.013984039120880955,0.009897180125690477,0.04730430225440477
1.7176795531884298e+18,0.04530330729870589,0.010264030644584704,-0.00043837270050470597
1.7176795533884298e+18,0.031676793420833335,0.03724713917305953,-0.01559114901064286
1.7176795535884298e+18,0.029080692689404757,0.0022034133634,0.011271586261260716
1.7176795537884298e+18,-0.011584538492848236,0.010350267977461176,-0.012123521543577646
1.7176795539884298e+18,0.010464395260321429,-0.01522754950317143,0.014427630429885712
1.7176795541884298e+18,0.004663998474942353,0.008977658130535296,-0.0365645981616
1.7176795543884298e+18,0.005177657740548809,0.02107423049427381,-0.007359255074988098
1.7176795545884298e+18,0.031117278030611772,-0.041830461012105885,-0.027811516689035302
1.7176795547884298e+18,-0.008326429967641666,0.03869426481959286,0.036505395381894054
1.7176795549884298e+18,-0.01591838868,-0.0008362788381940467,-0.019467120175596434
1.7176795551884298e+18,-0.00559823541776706,-0.047026255880352946,0.027272533450235288
1.7176795553884298e+18,-0.026637303753690476,-0.010078979672535713,-0.00714109528997262
1.7176795555884298e+18,-0.016794706354470584,-0.024561449644235293,0.002572744934410588
1.7176795557884298e+18,-0.0005890312936547618,-0.006552063924767857,0.0065302480945
1.7176795559884298e+18,0.017887045146647056,0.023393653497647056,-0.003133287135748236
1.7176795561884298e+18,0.02584465659610714,0.015562061164559524,-0.00124351051085
1.7176795563884298e+18,0.01766366664571429,0.021721437618452383,-0.007002927515298809
1.7176795565884298e+18,0.014617215441823532,0.009142946165697646,-0.006769624861844706
1.7176795567884298e+18,0.009933539890507142,0.005781233002310714,-0.005461265457467858
1.7176795569884298e+18,0.00140854193388,-0.0010402369717376469,0.0003521354787529412
1.7176795571884298e+18,-0.011657001882642857,-0.013227751971476187,0.0030324203434892857
1.7176795573884298e+18,-0.01839728222529412,-0.02099697609623529,-0.0005605421794917647
1.7176795575884298e+18,-0.0228122364325,-0.024121194734166667,0.0008435509629142856
1.7176795577884298e+18,-0.016500148078761906,-0.017780018421511907,0.0004581354496892856
1.7176795579884298e+18,0.018002028054141177,0.020231620588192945,-0.00029464394451411783
1.7176795581884298e+18,0.028746181101309522,0.03142954579845238,-0.005075849836461906
1.7176795583884298e+18,0.015508333966282348,0.014554334289152942,-0.0011785758906341175
1.7176795585884298e+18,0.00741015904645238,0.007417431101178572,-0.0021379654312511905
1.7176795587884298e+18,0.002292473855235294,0.002617660158055295,-0.0012001352248329413
1.7176795589884298e+18,-0.008850013261226189,-0.009940811905585713,-0.0013235023890357143
1.7176795591884298e+18,-0.018965353013690473,-0.020187047410238097,-0.0005090393825047621
1.7176795593884298e+18,-0.026855720009294117,-0.019530942783647056,-0.004081897009905883
1.7176795595884298e+18,-0.02015068764779881,-0.01856539348552619,-0.0009962627691345238
1.7176795597884298e+18,0.0002371524511176469,-0.0019313552842070592,0.002436202616918824
1.7176795599884298e+18,0.027248150935833333,0.02656458378154762,0.0002617916824166666
1.7176795601884298e+18,0.029227244645529414,0.014999893360631766,0.005777896337905882
1.7176795603884298e+18,0.012064233291640475,0.018812641451166665,-0.008319157931990475
1.7176795605884298e+18,0.005606705228535715,0.00550489734160357,-0.003134228203313095
1.7176795607884298e+18,0.0033776260446905875,-0.0002353558727435295,0.0006539658972317646
1.7176795609884298e+18,-0.005497625314116666,-0.005657609146483335,-0.0019343496726654762
1.7176795611884298e+18,-0.03149097264850587,-0.014478876551517646,-0.0029392532537752944
1.7176795613884298e+18,-0.02649186395836904,-0.019561656245773808,-0.00832642977066786
1.7176795615884298e+18,-0.022249213080000003,-0.02030707809188235,-0.009500471475376472
1.7176795617884298e+18,-0.005075849911059525,-0.00952630844791905,-0.0004508634499047623
1.7176795619884298e+18,0.024812033931666665,0.0224922686775,0.002799716612011905
1.7176795621884298e+18,0.027071313143647063,0.026253855973764704,0.0001581016571564707
1.7176795623884298e+18,0.022819508177738097,0.01807089816902381,-0.003883243236661906
1.7176795625884298e+18,0.010492199952681176,0.011995962204341178,-0.00482928663002353
1.7176795627884298e+18,-0.002494292982172619,0.0017670938520583342,-0.0018107258114535714
1.7176795629884298e+18,-0.02614426262211765,0.00046891509843294136,-0.014998096835647056
1.7176795631884298e+18,-0.01181698563327381,-0.0133222877265,0.002341581137251191
1.7176795633884298e+18,-0.007991918346060714,-0.02090697467154762,0.005003130007858333
1.7176795635884298e+18,-0.018483519410858823,-0.023483483822,-0.0008983047814729412
1.7176795637884298e+18,-0.018005450344642855,-0.018681745222619044,-0.0016216540438523813
1.7176795639884298e+18,0.011591725062530589,0.012520572208790588,0.0017966095961905884
1.7176795641884298e+18,0.027219063114321422,0.024964745789448812,0.003941419196334524
1.7176795643884298e+18,0.020416671399411765,0.016041927028470588,-0.0001724745283164707
1.7176795645884298e+18,0.023641243310238095,0.007417431005585713,-0.002756084756428572
1.7176795647884298e+18,0.005126753774732143,0.016107460528309525,-0.013220479985724995
1.7176795649884298e+18,0.007114573992563531,-0.0014211181954776467,0.004038778316861178
1.7176795651884298e+18,-0.007664678707201192,-0.005701241062459523,-0.0014034942946380953
1.7176795653884298e+18,-0.009881352720411766,-0.02645148294692942,0.007071455277761177
1.7176795655884298e+18,-0.02452115415166667,-0.015067565709666669,-0.0010835266772511907
1.7176795657884298e+18,-0.022694772514917652,-0.01657731659028236,-0.0001437288133188235
1.7176795659884298e+18,-0.008384605866486905,-0.005868496917769047,0.002996060371094047
1.7176795661884298e+18,0.02020886340809524,0.02149600599964286,-0.0023779411180809523
1.7176795663884298e+18,0.028738566575764707,0.024759076689647063,-0.0018612875327388236
1.7176795665884298e+18,0.01860175354922619,0.02049974317738095,-0.003810523418424999
1.7176795667884298e+18,0.010506572839550588,0.00513291363167647,0.021803653965905886
1.7176795669884298e+18,-0.012813248474133333,-0.001090798649771429,-0.03811250586025
1.7176795671884298e+18,-0.02015795927928118,-0.002944642855603529,0.001861287500257647
1.7176795673884298e+18,-0.01707463520793929,-0.02248499666702381,0.007926470333896428
1.7176795675884298e+18,-0.011722449795047619,-0.016223812253535714,-0.001025350756175
1.7176795677884298e+18,-0.014796876567352941,-0.02331100910447059,0.004469964664232941
1.7176795679884298e+18,-0.006130288537453571,-0.00780284651497262,0.00032723960584404757
1.7176795681884298e+18,0.019302773366082354,0.019239891988976472,0.0015091520651047058
1.7176795683884298e+18,0.022274108802857146,0.02347398746714286,-0.0015416621546869053
1.7176795685884298e+18,0.014401622351423532,0.022516908019894116,0.005375455908895295
1.7176795687884298e+18,0.013620439422711905,0.004305018753886904,-0.0033742039175833336
1.7176795689884298e+18,0.003745075439986905,0.008130086185733333,-0.002239773274545238
1.7176795691884298e+18,-0.005023320413989413,-0.007558336467438825,-0.0019762705327576475
1.7176795693884298e+18,-0.017430962994273807,-0.017343698778452384,-0.0035269157463321426
1.7176795695884298e+18,-0.016442571059623535,-0.020120230613411765,-0.0022277958991517646
1.7176795697884298e+18,-0.021306934189166668,-0.019103520794047618,-0.0009308148569178573
1.7176795699884298e+18,-0.002687727977612942,-0.0030165074138141187,-0.00014372876409294116
1.7176795701884298e+18,0.020703358974999996,0.021241486272142857,-0.00018907177063571428
1.7176795703884298e+18,0.025459241321428575,0.02309584409202381,-0.001861629716772619
1.7176795705884298e+18,0.014638775049482347,0.015136435836505879,-0.002270914540302353
1.7176795707884298e+18,0.002428845078470238,0.005068577847570238,-0.0004654074409595237
1.7176795709884298e+18,0.0016600672568082351,0.001345660547584706,0.00020122027355058822
1.7176795711884298e+18,-0.0055412573025821425,-0.008900917209914285,-0.0010835266717142856
1.7176795713884298e+18,-0.016212604939282355,-0.01817989228811765,0.0007258302752211766
1.7176795715884298e+18,-0.020107055637142858,-0.019452576381190478,-0.0016798299733011908
1.7176795717884298e+18,-0.018870817230714283,-0.019830719956309528,-0.00045086345307500007
1.7176795719884298e+18,-0.007387658629895296,-0.007464912822442353,0.0005605421687129411
1.7176795721884298e+18,0.016201996332394046,0.019074432828333338,-0.0006181192694285713
1.7176795723884298e+18,0.023255314392941172,0.025226195201176464,-0.002364338222354118
1.7176795725884298e+18,0.016645587691416663,0.018652657224880954,-0.002007069565165477
1.7176795727884298e+18,0.011584538656862355,0.007166675650539998,0.0010707792658858828
1.7176795729884298e+18,0.0019488936358071432,0.004552266473723809,-0.0020288854579916665
1.7176795731884298e+18,-0.004923138035814285,-0.004886778077741667,-0.0026688207512380957
1.7176795733884298e+18,-0.017592401112164712,-0.018043350001058826,0.002551185602758824
1.7176795735884298e+18,-0.021292390226869046,-0.020397935317619048,-0.0011489745978690475
1.7176795737884298e+18,-0.021005959238470588,-0.02318883974317647,-0.0016385079498694123
1.7176795739884298e+18,-0.009111805009367858,-0.011962425381289285,0.00023270371769880952
1.7176795741884298e+18,0.014121351302882354,0.015783215095105885,-0.0011067114991858823
1.7176795743884298e+18,0.01411493486224762,0.019430760449797618,-0.003810523393907144
1.7176795745884298e+18,0.01788909839714286,0.014733054115511906,-0.0011271586214964286
1.7176795747884298e+18,0.012662504459035292,0.011277318417341177,-0.0002730846570070588
1.7176795749884298e+18,0.007184727328071428,0.011642457918190475,-0.0012653264954476191
1.7176795751884298e+18,0.005174235621728234,0.00433521896851647,-0.00036650835820352927
1.7176795753884298e+18,-0.006181192481213095,-0.00769376659267381,-0.000770831050932143
1.7176795755884298e+18,-0.015105893581764708,-0.015916164382823526,-0.0003593219197847058
1.7176795757884298e+18,-0.018230882095714288,-0.01864538505952381,-0.0004581354442357143
1.7176795759884298e+18,-0.018361777820833335,-0.017561858620000002,0.00032723960028333335
1.7176795761884298e+18,-0.007121760450057647,-0.008212302442571767,-0.0013726097287282352
1.7176795763884298e+18,0.015438437294761903,0.013540447578261904,0.00018179977392976192
1.7176795765884298e+18,0.02505911040835294,0.023882331086588236,-0.00048149136886705877
1.7176795767884298e+18,0.01730733904702381,0.019685279977142856,-0.003446923826740476
1.7176795769884298e+18,0.01058562369764,0.00970348839055294,0.0004886778099529411
1.7176795771884298e+18,0.0023124932167309523,0.002821532571378571,-0.0030106043781547615
1.7176795773884298e+18,-0.0068429436928440475,-0.02696454298309523,-0.019372584486904758
1.7176795775884298e+18,-0.014243520834363529,-0.022333653566823534,0.003708202118048237
1.7176795777884298e+18,-0.029495196134369055,-0.004683162299725001,-0.014114934720940473
1.7176795779884298e+18,-0.02445544950023529,-0.01911412934909412,0.021609620250964707
1.7176795781884298e+18,-0.010238963658929763,-0.008457325754211906,-0.009599028202180955
1.7176795783884298e+18,0.023082839872705884,0.023947009318105884,-0.0037513208165541176
1.7176795785884298e+18,0.02945883626384524,0.029000700983095234,0.016420156033011907
1.7176795787884298e+18,0.01775093042923452,0.024906569802738098,-0.007090191414763095
1.7176795789884298e+18,0.008810573394060002,0.011679758925964708,0.005741964274791765
1.7176795791884298e+18,0.002508836967501191,0.007250175242572619,-0.0018979897088345235
1.7176795793884298e+18,-0.006022235326754118,-0.009649590052574118,0.002421829723645882
1.7176795795884298e+18,-0.01858720928367857,-0.018223609941309525,-3.635995589166669e-05
1.7176795797884298e+18,-0.021882704535764706,-0.018546400570117652,0.00048149136886000007
1.7176795799884298e+18,-0.016514691870538094,-0.017103723261190477,-0.001832541799055952
1.7176795801884298e+18,-0.003366931851309524,-0.0015707500852404767,-0.0008217350196666668
1.7176795803884298e+18,0.014430368274564705,0.01321047027868235,0.0008479997269788236
1.7176795805884298e+18,0.02199777326642857,0.018638113335952382,-0.00021815973536904758
1.7176795807884298e+18,0.016845011507800003,0.014468096974105884,-0.0013654233147517645
1.7176795809884298e+18,0.00863185355852381,0.010660739111142856,-0.0027633566502976194
1.7176795811884298e+18,0.004304676587904707,0.003767490304011764,-0.0010348471156176474
1.7176795813884298e+18,-0.0007053831164880953,-0.0009671748445880951,-0.0014471262416333335
1.7176795815884298e+18,0.002523380944144048,0.0013598623350273811,-0.0008217349947166665
1.7176795817884298e+18,0.00033057616369764703,-0.0005946777808858825,-0.000740203157329412
1.7176795819884298e+18,-0.00031269562067619044,0.0015634780893297622,-0.0006981111586428571
1.7176795821884298e+18,-0.00501613400811647,-0.0075798958483294125,-0.0005246100125741178
1.7176795823884298e+18,-0.016907379563071426,-0.015271181374380952,-0.0017452779436416665
1.7176795825884298e+18,-0.027639041906941178,-0.025193856086705872,-0.0021128128941082353
1.7176795827884298e+18,-0.009446316592502382,-0.007955558322836906,-0.0014980301909642859
1.7176795829884298e+18,0.018921720986238094,0.01799817823440476,-0.0005453993411892857
1.7176795831884298e+18,0.025346568007411772,0.02096463729,-0.0012360673973529411
1.7176795833884298e+18,0.015947476828095233,0.014340366602738096,-0.0005526713240428571
1.7176795835884298e+18,0.004707117154095295,0.004629862922047059,-0.0006898980834741176
1.7176795837884298e+18,-0.00035632758710714294,-0.00029087968181428577,-0.000618119250167857
1.7176795839884298e+18,-0.013280538159305884,-0.01439982575949412,-0.0014947791666611767
1.7176795841884298e+18,-0.02256498871678572,-0.020325215356785713,-0.0022252293199714287
1.7176795843884298e+18,-0.024448434267857144,-0.022543172752380953,-0.0014762142230404763
1.7176795845884298e+18,-0.017843926421471763,-0.01646952003962353,-0.0008408132967517647
1.7176795847884298e+18,0.012420560939833332,0.010086251743763094,0.00037087157496071423
1.7176795849884298e+18,0.022400128348,0.022322874100941175,-0.00034494903220000004
1.7176795851884298e+18,0.02551741709619047,0.021350566253809523,-0.0012798704584738095
1.7176795853884298e+18,0.01431538517942353,0.011780369138752939,-0.0021846772883800008
1.7176795855884298e+18,0.006297544434521428,0.007701038691674998,-0.001061710706402381
1.7176795857884298e+18,0.002661548774008333,0.00012362381186547608,0.000123623847275
1.7176795859884298e+18,-0.008674031134470588,-0.008226675272889413,-0.001473219865388235
1.7176795861884298e+18,-0.020652455011666664,-0.01877628119297619,-7.271991166666679e-06
1.7176795863884298e+18,-0.02455605992730588,-0.02060890848611765,-0.001667253681261177
1.7176795865884298e+18,-0.023866675040595236,-0.024252090492023808,-0.0006035752676654762
1.7176795867884298e+18,0.003097354938505882,0.0039184054695023535,-0.0007186438341152941
1.7176795869884298e+18,0.02019431940833333,0.019212600775119045,0.0015707500972619052
1.7176795871884298e+18,0.02596828026607142,0.026790015532500003,-0.004683162313107144
1.7176795873884298e+18,0.018555383920235292,0.013339826218658826,-0.0021487450690247057
1.7176795875884298e+18,0.007955558398178571,0.007097463406321427,-0.0020434295349380954
1.7176795877884298e+18,0.002306846732067059,0.0035015920682400004,-0.000948609863744706
1.7176795879884298e+18,-0.005403089392655953,-0.007751942556228572,-0.00026906366250952385
1.7176795881884298e+18,-0.01853382447132941,-0.017346265396,-0.001257626693187059
1.7176795883884298e+18,-0.025713760804404757,-0.02193232517119048,0.0003563275622440476
1.7176795885884298e+18,-0.025161089331666667,-0.021176038221666665,-0.0016434700339773812
1.7176795887884298e+18,-0.013560809110079997,-0.013659622731305885,0.0008551861735305884
1.7176795889884298e+18,0.022637708345333334,0.022783148424369043,0.0006472072176107144
1.7176795891884298e+18,0.03190059889764705,0.02879785505341176,-0.001868473998724706
1.7176795893884298e+18,0.020419751293690475,0.01801272205630952,-0.0020361575299940476
1.7176795895884298e+18,0.009248946119624705,0.008826742986894117,-0.000998914934837647
1.7176795897884298e+18,0.003810523413379762,0.004348650726999999,-0.0015343901357869048
1.7176795899884298e+18,-0.010711643021433334,-0.011075242602690475,-0.0011853345786761906
1.7176795901884298e+18,-0.017039045450611766,-0.020982603366235295,0.001947524806269412
1.7176795903884298e+18,-0.021706893696738092,-0.015482069203380952,-0.006428440149270238
1.7176795905884298e+18,-0.02301097560470588,-0.022958873803647063,1.4372854749411775e-05
1.7176795907884298e+18,-0.009300876755083334,-0.0075046949004678575,0.001141702615020238
1.7176795909884298e+18,0.015882028705071768,0.030371685369647062,-0.007689489097788234
1.7176795911884298e+18,0.03054236326897619,0.01861629742107143,0.004152306960003571
1.7176795913884298e+18,0.008471869716539284,0.017598218750666667,-0.008442781812809524
1.7176795915884298e+18,0.020639450869882354,0.010307149239195294,-0.0002515253446835293
1.7176795917884298e+18,0.01110433054825,-7.2720167416666374e-06,0.00974446816395
1.7176795919884298e+18,-0.0001437287367305884,0.0035590836312917643,-0.00875308188475294
1.7176795921884298e+18,-0.009969899915907144,-0.018318145857940473,0.003795979325919048
1.7176795923884298e+18,-0.018634434537517647,-0.022376772520352937,-0.003133287119284706
1.7176795925884298e+18,-0.023364907774166666,-0.021037870408690477,-0.001985253594505952
1.7176795927884298e+18,-0.022834052198928572,-0.014631246152220242,-0.0014762142201916665
1.7176795929884298e+18,-0.0004527455691647059,0.0026823381284729413,-0.0011067115018423529
1.7176795931884298e+18,0.03686172324440476,0.028986157050952383,0.0016943739389130958
1.7176795933884298e+18,0.02361463623847059,0.022358806409294118,-0.0019906434696435296
1.7176795935884298e+18,0.011649729915916665,0.009584484408607144,-0.0009089988973166669
1.7176795937884298e+18,0.004081897002175294,0.0050682356443882345,-0.0005461693139141179
1.7176795939884298e+18,-0.004450458603435715,-0.005024945857426192,-0.0006762951794988095
1.7176795941884298e+18,-0.011220682432046427,-0.01404948690703095,0.02541560915258691
1.7176795943884298e+18,-0.03222398969427059,-0.061585980129294136,-0.020862230364729412
1.7176795945884298e+18,-0.1141775342715476,-0.08105361386416667,0.004850418159940477
1.7176795947884298e+18,-0.15427127157058823,-0.050928491770705915,0.034969208816435296
1.7176795949884298e+18,-0.07513421269378572,-0.04728975819402381,0.07148367308059525
1.7176795951884298e+18,0.04160947826790589,0.014101588805996473,0.01633477434251765
1.7176795953884298e+18,-0.0819626127222619,0.06605149546540119,-0.07639953921936786
1.7176795955884298e+18,-0.05537621276772618,0.05294009587258333,0.07482878926184522
1.7176795957884298e+18,-0.09080783458329413,-0.06267113214482355,0.08960051295922354
1.7176795959884298e+18,-0.46398939724523813,-0.3115684624283333,-0.031531353626379766
1.7176795961884298e+18,-0.867338428762353,-0.48102245611058825,-0.061523098708682375
1.7176795963884298e+18,-0.5201728012214286,-0.0851041131445833,0.033683862972701185
1.7176795965884298e+18,0.09371834204035176,0.1842405173252941,0.0012145075991294094
1.7176795967884298e+18,0.4271749433690478,0.09840458436796429,0.09759739318929762
1.7176795969884298e+18,0.22199389196523808,0.06406624221159166,0.048227845290748826
1.7176795971884298e+18,0.2640009976451765,-0.0579999463842941,0.045080527370588236
1.7176795973884298e+18,0.4111474734630953,-0.011693361363816662,0.04729703045892858
1.7176795975884298e+18,0.3168868979808235,0.033267819701576475,0.03310792144347059
1.7176795977884298e+18,-0.016171999233976195,-0.05517986901221429,0.004639530457260715
1.7176795979884298e+18,-0.1735309253072941,-0.11479436979110941,0.05151239005383292
1.7176795981884298e+18,-0.2782991015822619,-0.03942873622542857,0.016565596059964285
1.7176795983884298e+18,-0.2836512875380952,-0.05433631799340476,-0.004239570757988096
1.7176795985884298e+18,-0.17353811351952944,-0.009743013632194118,-0.013603927705047062
1.7176795987884298e+18,-0.030993226657833335,-0.02510291336795238,0.00934450871065476
1.7176795989884298e+18,0.2064591864160365,0.14483008877775294,-0.05103089843378824
1.7176795991884298e+18,0.5108973756476191,-0.0021888691960023857,0.06234278063428691
1.7176795993884298e+18,0.21488079390583528,0.1124695563587059,-0.02190426374256471
1.7176795995884298e+18,0.13876686293159526,0.10638195930438094,0.018667201324464287
1.7176795997884298e+18,-0.062241742176,-0.20041359574705883,0.10482857651597646
1.7176795999884298e+18,-0.2208721878080952,-0.09761193715560948,-0.011882433672535716
1.7176796001884298e+18,-0.3934874435285715,-0.056365203570511904,-0.052685575780691676
1.7176796003884298e+18,-0.22180223202856472,-0.12390677434501178,-0.05895754011296588
1.7176796005884298e+18,-0.03591454627065476,0.1500211789192262,-0.07204361657823809
1.7176796007884298e+18,0.4131600181799999,-0.10300861016491762,0.10170247507694118
1.7176796009884298e+18,0.2864128262510714,0.06359356333481786,-0.025895560636404764
1.7176796011884298e+18,0.12845848346878824,0.05041466154753412,-0.024484196330364714
1.7176796013884298e+18,-0.08946003538685715,-0.021503277907583333,0.055048973549559524
1.7176796015884298e+18,-0.1133703427793333,-0.11782807315702382,0.0892346033847143
1.7176796017884298e+18,-0.2864514326329412,-0.049182187284283536,-0.06862330008155176
1.7176796019884298e+18,-0.31934949321166667,-0.08734388569747623,0.05006038734328453
1.7176796021884298e+18,-0.08526529408265882,0.19101732767057653,-0.03196527822584706
1.7176796023884298e+18,0.18714651087785714,0.004959498378520239,-0.005752145019535715
1.7176796025884298e+18,0.23440994120541175,-0.04169391857978706,0.02151619641648118
1.7176796027884298e+18,0.2723778830352381,0.13986947869690475,0.021655989584048813
1.7176796029884298e+18,0.0561006857917857,-0.047398838398148804,-0.015394805390013094
1.7176796031884298e+18,-0.1999051564977777,-0.15572113587699998,-0.07351007738919059
1.7176796033884298e+18,-0.1221258197314881,0.14678514379408336,-0.05467810125541785
1.7176796035884298e+18,-0.22587694468988234,-0.02539507629691765,0.01721151916701177
1.7176796037884298e+18,-0.13163758431669045,-0.03788707381467857,0.013445911981309525
1.7176796039884298e+18,0.048759984236482354,0.018981180428443527,0.020100468043742353
1.7176796041884298e+18,0.17665938962345235,-0.011715177908857143,0.02720451898548453
1.7176796043884298e+18,0.16136003022903572,-0.04347196316879761,0.001454398192809524
1.7176796045884298e+18,0.15859660911950588,-0.041967003600752936,0.08962207245941176
1.7176796047884298e+18,-0.009842640109915476,-0.0409049504545,0.004603170442047623
1.7176796049884298e+18,-0.1413141236618824,0.03228327779463176,-0.034272124598328235
1.7176796051884298e+18,-0.3071398176285714,0.00547580894445238,-0.03821431362335716
1.7176796053884298e+18,-0.24003422637294114,-0.1276149753035094,-0.022026433474517645
1.7176796055884298e+18,0.000822643633358334,-0.2466004930752381,0.0697093076317619
1.7176796057884298e+18,-0.3932156527585715,-0.23929214328484522,0.11375575832178572
1.7176796059884298e+18,-0.1460427997549412,-0.19698117294035297,-0.034279311131141174
1.7176796061884298e+18,0.2886562353494405,0.218785127617369,-0.1105051779110357
1.7176796063884298e+18,0.592741926635294,0.58111876144,-0.11289894647517651
1.7176796065884298e+18,0.8784965298035714,0.4590444430023809,-0.11816985659320119
1.7176796067884298e+18,0.19167398738185878,0.1944596324817647,-0.017944536272998825
1.7176796069884298e+18,-0.0687421326252381,0.05804503325707618,-0.012929600594274998
1.7176796071884298e+18,-0.05246014370394167,0.04256296446838929,-0.06623329563859524
1.7176796073884298e+18,-0.020531654481671765,0.12263836686069413,-0.005317964433011763
1.7176796075884298e+18,-0.03791616209069048,0.004312290846952378,-0.03267305617289286
1.7176796077884298e+18,0.09343717337091766,0.05057994991249411,-0.019906434153964706
1.7176796079884298e+18,0.17357515737142853,0.17044820218226192,-0.016594683861786905
1.7176796081884298e+18,0.05795143873505883,0.17983522994341178,-0.09558681622176471
1.7176796083884298e+18,-0.029560644174463097,-0.037530746453260724,0.10368405013811907
1.7176796085884298e+18,0.020405207004129764,-0.025262897428925,0.13615349059210713
1.7176796087884298e+18,-0.010714979518975295,-0.012948165219941177,-0.14553256314988236
1.7176796089884298e+18,-0.020536103147321426,-0.042737492119357144,0.05003857123898929
1.7176796091884298e+18,0.009313624143939998,-0.01986151889541412,0.007941014571542353
1.7176796093884298e+18,0.0020070695816464283,0.005381273541710714,-0.01325683993304762
1.7176796095884298e+18,-0.000682711645,-0.0007815251743694117,0.005892879425520003
1.7176796097884298e+18,0.009388140657714285,0.0052431056384619045,-0.004741338259071428
1.7176796099884298e+18,0.017663666435083335,-0.00019634377186547632,0.008537317681880952
1.7176796101884298e+18,0.007948200757694117,0.012958945107174118,-0.029270363243034114
1.7176796103884298e+18,0.0336911353675,0.05585616379154764,-0.037988882376082146
1.7176796105884298e+18,0.036478360785176474,0.004471761256655294,0.015149012037717647
1.7176796107884298e+18,0.019256232716261902,0.013896775099190475,-0.009780828175427381
1.7176796109884298e+18,0.008156607469764704,0.008273387049324706,-0.002335592482578824
1.7176796111884298e+18,-0.006573880046717858,-0.0006181192051988095,-0.0033596599379559526
1.7176796113884298e+18,-0.019183512832392852,-0.008362789879466667,-0.0027997166117750007
1.7176796115884298e+18,-0.018490705978541175,-0.021413789514,-0.00025871175585764726
1.7176796117884298e+18,-0.025481056910238102,-0.01111887448597619,-0.0074101590900595244
1.7176796119884298e+18,0.00401003252557647,0.0035087785488494123,0.0015666435582882355
1.7176796121884298e+18,0.03377839860904761,0.02352489149654762,-0.0009671748295107141
1.7176796123884298e+18,0.02365775485282353,0.007583489037934118,0.003636337821788236
1.7176796125884298e+18,0.011475202097936905,0.004392282673641666,-0.011031610705213095
1.7176796127884298e+18,0.003803251419246428,0.002836076535123809,0.0015998380702869051
1.7176796129884298e+18,-0.004096269876089412,-0.00319616844446353,-0.002213423025274118
1.7176796131884298e+18,-0.01732915522321429,-0.01690737940794048,0.0023852131092714285
1.7176796133884298e+18,-0.022227653787058824,-0.017612163721882353,-0.0037585072467752954
1.7176796135884298e+18,-0.021699621741309526,-0.01874719315202381,-0.0001672557970476191
1.7176796137884298e+18,-0.002817083944388236,-0.0039004394012399995,0.000840813285897647
1.7176796139884298e+18,0.033603871196904764,0.029531556625000004,-0.006021208692213095
1.7176796141884298e+18,0.02148873396666667,0.01732188310166667,-0.0009089989138857141
1.7176796143884298e+18,0.008055997464305884,0.007755963674164707,-0.002191863674790588
1.7176796145884298e+18,0.003396019905129762,0.002392485059158334,-0.00023270372324642855
1.7176796147884298e+18,-0.009184268185625882,-0.008657861580834118,-0.0008336268388435293
1.7176796149884298e+18,-0.022775876668571428,-0.02039066313023809,-0.0017380059302583338
1.7176796151884298e+18,-0.023161890774705877,-0.01940877344447059,-0.00046711849216941176
1.7176796153884298e+18,-0.015045749721585717,-0.011482473982990477,0.0009453588477047617
1.7176796155884298e+18,0.021721437622964284,0.017685482614853573,-0.002821532565925
1.7176796157884298e+18,0.0287457534497647,0.02176951846023529,-0.0033632531297776475
1.7176796159884298e+18,0.013438639763107144,0.016769211716428572,-0.002865164549140476
1.7176796161884298e+18,0.004239998615389412,0.004787964575122352,0.002400270386469411
1.7176796163884298e+18,-0.0024361170167166665,-0.00024724771541785704,-0.008500957703213095
1.7176796165884298e+18,-0.022198908052823527,-0.01935128179623529,0.005303591492435294
1.7176796167884298e+18,-0.02431753854357143,-0.02095060653738095,-0.0014034943001071428
1.7176796169884298e+18,-0.01963437603839286,-0.015191189434571425,-0.0011853345758428572
1.7176796171884298e+18,0.009874166309929412,0.004478947728655294,0.00073301671618
1.7176796173884298e+18,0.02612099235488095,0.019350768554166668,-7.271991178333336e-05
1.7176796175884298e+18,0.021602433700705886,0.018018197530941173,-0.003988473289878825
1.7176796177884298e+18,0.010907986771678571,0.010260779583683334,-0.0035778196732714285
1.7176796179884298e+18,0.00549762534964353,0.0024379992090905887,-0.0012001352276058825
1.7176796181884298e+18,-0.007330167131869047,-0.005119481783003572,-0.0015852940907345237
1.7176796183884298e+18,-0.018419953527619052,-0.019481664302738094,-0.00041450349718571424
1.7176796185884298e+18,-0.020143586681647063,-0.016103011687411767,-0.0017175587524129409
1.7176796187884298e+18,-0.012602360691416667,-0.012835064326369047,0.0006472072396999999
1.7176796189884298e+18,0.006568404703071766,0.004802337484335295,-2.874574791176476e-05
1.7176796191884298e+18,0.026484591997261903,0.022783148435119045,-0.0036796275415833333
1.7176796193884298e+18,0.01729775705503529,0.015934130449764702,-0.0038950495834423533
1.7176796195884298e+18,0.009606300343048811,0.006726591842283332,-0.0019997975709630956
1.7176796197884298e+18,0.0021088774133678576,0.003854155335357142,-0.006217552232607143
1.7176796199884298e+18,-0.011699521661258826,-0.01382491067017647,0.0038016258902470595
1.7176796201884298e+18,-0.021735981638452376,-0.016478331925000003,-0.0018107258006988096
1.7176796203884298e+18,-0.12939182173482355,-0.07539112817211766,-0.007071455288682352
1.7176796205884298e+18,-0.0753087403502262,-0.021445102053011905,-0.021997773252251194
1.7176796207884298e+18,0.14091886965329414,0.055703880296396474,0.012870910853658822
1.7176796209884298e+18,0.06464800171678571,0.03746529863694048,-0.00408685899502381
1.7176796211884298e+18,0.01538753310758333,0.03073870652313095,-0.004421370580594047
1.7176796213884298e+18,0.013388334652294116,0.0008354234556788234,0.001394169018656471
1.7176796215884298e+18,0.002079789479716667,0.004566810447917857,-0.0017307339391321429
1.7176796217884298e+18,-0.016758774176764704,-0.01625392678602353,0.00045993204558705895
1.7176796219884298e+18,-0.04750791840666667,-0.03916694428,-0.002886980475378572
1.7176796221884298e+18,-0.12097650356092941,-0.10522921953494116,-0.030262091829707054
1.7176796223884298e+18,0.04325380346228572,0.00515584178257619,0.0537109269200012
1.7176796225884298e+18,0.09479040554930834,0.025262897768485712,-0.03785071396144048
1.7176796227884298e+18,-0.021300603260529412,0.06755431723952943,0.004225625706165881
1.7176796229884298e+18,0.04083223041108334,0.03987232766452381,0.0030178763799571426
1.7176796231884298e+18,0.015077147602563533,0.014309995333905881,-0.005626981220355294
1.7176796233884298e+18,-0.0070829193654892856,-0.011220682379701188,0.006850215628463095
1.7176796235884298e+18,-0.05476784655764705,0.03326781982071529,-0.03184310810826941
1.7176796237884298e+18,-0.012580544791203574,0.06022663109509169,-0.08391877922579763
1.7176796239884298e+18,0.011846073698035715,-0.10412036942690478,0.09017996255142856
1.7176796241884298e+18,-0.003995659725070587,-0.043368358632943534,0.0334241248942953
1.7176796243884298e+18,-0.010318955627845237,0.03745075477166667,-0.03667992300202381
1.7176796245884298e+18,0.022421687677258825,0.020210061331529406,-0.00039525415244941176
1.7176796247884298e+18,0.02288495623644048,0.016434700161499997,0.00016725578047261912
1.7176796249884298e+18,0.007696675498211767,0.015653859391788236,-0.007926641536171765
1.7176796251884298e+18,0.0034978277733309525,0.0030833242544666675,0.000596303276629762
1.7176796253884298e+18,-0.0015489341485488094,0.000589031256186905,-0.001912533702045238
1.7176796255884298e+18,-0.00970887820324588,-0.013185317759082353,0.0011138979618011767
1.7176796257884298e+18,-0.02143783009147619,-0.022201389118452382,-0.0003926875236107143
1.7176796259884298e+18,-0.02351402609658824,-0.022642670461882352,0.00031620328701058824
1.7176796261884298e+18,-0.01535117337917857,-0.017081907185702384,0.0010835267133535713
1.7176796263884298e+18,0.017261824956635294,0.016192842264396472,-0.0004096269771717645
1.7176796265884298e+18,0.029204316658809525,0.028753453311547612,-0.005643065223285715
1.7176796267884298e+18,0.01700918738904762,0.017125539182380953,-0.004334106747651191
1.7176796269884298e+18,0.008321895614461176,0.006987014681762353,-0.002019389192878823
1.7176796271884298e+18,0.0032505800814595235,0.003308755965160714,-0.0011489746115988097
1.7176796273884298e+18,-0.0065037267227058835,-0.00711996373715647,-0.0009701691815117647
1.7176796275884298e+18,-0.01652923618761905,-0.015394805441428572,0.0002981516383357143
1.7176796277884298e+18,-0.018267926485764703,-0.017260028126117648,0.0005749150863764706
1.7176796279884298e+18,-0.019067160773844044,-0.01679102762692857,0.0006399352430226191
1.7176796281884298e+18,-0.001199878544417857,-0.000669023141201191,-0.0006326632325059523
1.7176796283884298e+18,0.025540602119058817,0.024327890224823522,-0.0031476600316164708
1.7176796285884298e+18,0.020797894701904764,0.020572462940238095,-0.004414098658976191
1.7176796287884298e+18,0.009198641037709414,0.010278403444294117,-0.002457761904327059
1.7176796289884298e+18,0.003694171543294046,0.0027488126679369052,-0.001374406335379762
1.7176796291884298e+18,-0.0027164737173082354,-0.0044250494105105885,-0.0019115925987458822
1.7176796293884298e+18,-0.014711238243940475,-0.016042012465357143,0.0016071100587297623
1.7176796295884298e+18,-0.020128871480689287,-0.017023731266666668,7.271992295119032e-05
1.7176796297884298e+18,-0.017484604545494116,-0.018790739621411763,-7.186449267058817e-06
1.7176796299884298e+18,-0.004181394866452382,-0.005395817467634524,0.0008362789855369049
1.7176796301884298e+18,0.02674792330047059,0.02489561903105882,-0.0038088123315752954
1.7176796303884298e+18,0.02273951641038095,0.022499540798285714,-0.004792242233584523
1.7176796305884298e+18,0.009902912041541178,0.00927230209017647,-0.0017606773824152939
1.7176796307884298e+18,0.002356125158407143,0.0027924445927333336,-0.0012725984562404762
1.7176796309884298e+18,-0.002559740925129762,-0.0018470857529750005,-0.001127158632667857
1.7176796311884298e+18,-0.014645961362436469,-0.012452300927458823,0.00028027109528941174
1.7176796313884298e+18,-0.017801834425000003,-0.018369049710714284,-8.2357143694868e-12
1.7176796315884298e+18,-0.018878773687058824,-0.01838829920588235,0.0005461693166517649
1.7176796317884298e+18,-0.01126431438677262,-0.01467487813142381,0.0007562870880357143
1.7176796319884298e+18,0.018318231370529413,0.018420638095278823,-0.0009917285074035294
1.7176796321884298e+18,0.028935252999285715,0.0261573523522619,-0.007271991156202379
1.7176796323884298e+18,0.015009389867904756,0.013482271605107142,7.999190295952382e-05
1.7176796325884298e+18,-0.008544675203272942,-0.0025565753407435295,-0.00027308469809529407
1.7176796327884298e+18,-0.08228258014678572,-0.06822582118964286,0.04272294838345238
1.7176796329884298e+18,-0.040387783843210595,-0.04260659643447411,0.05640635448087059
1.7176796331884298e+18,-0.023597611490916666,0.056161588235238105,-0.09584484378511907
1.7176796333884298e+18,-0.03238209128790707,-0.02941948183051765,0.014257893665118825
1.7176796335884298e+18,0.06693140661261904,-0.06720774234952381,0.11458476552488094
1.7176796337884298e+18,0.03907968041296547,0.03851246528986905,0.026768199544583336
1.7176796339884298e+18,0.0158389100114,0.09935430632555295,-0.06597150443262235
1.7176796341884298e+18,-0.11316672683535717,-0.06438621012786905,-0.09796826479869049
1.7176796343884298e+18,-0.09044132659046941,0.021007755939068236,-0.050944661173882355
1.7176796345884298e+18,0.17003460736869047,0.06445165745702382,0.035923637007797625
1.7176796347884298e+18,0.05824608279372824,0.023896704111275292,0.046884323787917646
1.7176796349884298e+18,-0.007671950653571428,-0.03126956202047619,0.04367557930785714
1.7176796351884298e+18,-0.02652822381400119,0.02672456748897262,-0.042366620776416675
1.7176796353884298e+18,-0.025770567782188232,0.07867173736152941,-0.029176939596364703
1.7176796355884298e+18,0.045995344341428566,-0.03309483180915476,0.05795049756104761
1.7176796357884298e+18,0.02745219460030706,-0.022434264029085882,0.008817759758541174
1.7176796359884298e+18,-0.08366425901235715,0.004050499231270238,0.04161033392707143
1.7176796361884298e+18,-0.013445826685047058,0.10848108315730232,0.13940971739317648
1.7176796363884298e+18,0.06584060776947619,-0.04342833076300358,0.11718086636380953
1.7176796365884298e+18,0.28832354200952376,-0.20312853042083334,0.37289316490952384
1.7176796367884298e+18,0.13375219401594116,-0.19645386829976463,0.1289606358678706
1.7176796369884298e+18,-0.16966282625336904,0.1647760485389762,-0.25924648553119045
1.7176796371884298e+18,-0.17613960311752944,0.17162113049529412,-0.34045751585411776
1.7176796373884298e+18,0.009540852536274999,0.027393590887410717,-0.15156283999160716
1.7176796375884298e+18,0.003478236118292942,-0.022491755353235294,0.046560934117635296
1.7176796377884298e+18,-0.1399494701080702,-0.06356447494652381,-0.016827387974440475
1.7176796379884298e+18,0.011424298043666667,-0.0013525903738630957,-0.10180060410607143
1.7176796381884298e+18,0.027696533473399995,-0.06557445322505882,0.046280662897682345
1.7176796383884298e+18,0.0818171724647619,-0.027669926424220233,0.08818743700635714
1.7176796385884298e+18,0.03745571638915294,0.04654117132352942,-0.02021545116102235
1.7176796387884298e+18,-0.017649122452535713,0.069105732565,-0.09289241519392857
1.7176796389884298e+18,0.010039454345247058,-0.0030668125166447052,0.024275789059069415
1.7176796391884298e+18,0.018412681479644043,-0.028942524931904766,0.030506002694916667
1.7176796393884298e+18,-0.035458229016309524,0.00687930370014762,-0.03702170708115595
1.7176796395884298e+18,-0.03485422585776471,-0.007436167034544706,-0.004714303524001179
1.7176796397884298e+18,-0.005512169310380952,-0.05735419446690476,0.03912331259226191
1.7176796399884298e+18,-0.005885693022481175,0.006670811597984707,-0.010247861149505882
1.7176796401884298e+18,0.027982622140869048,0.043995546753214286,-0.015874756707464285
1.7176796403884298e+18,0.032259921554235294,0.012865521203511764,0.00590006585858706
1.7176796405884298e+18,0.009482676534379765,0.01503847785547619,-0.014834862100382146
1.7176796407884298e+18,0.0027342686913190478,0.00025451966349523795,0.002523380961070238
1.7176796409884298e+18,0.004513083288642353,-0.007608641558754117,-0.002220609469070588
1.7176796411884298e+18,-0.007846478597025001,-0.02672456735414286,0.003134228161644047
1.7176796413884298e+18,-0.03279890470635294,-0.005064642428509412,-0.015702367778915295
1.7176796415884298e+18,-0.022230476983809522,-0.028622557098452385,0.017430962667071427
1.7176796417884298e+18,-0.019417756368235294,-0.013214063539602356,0.0019044062094976473
1.7176796419884298e+18,0.019925255918261903,0.020143415250295237,-0.00466134629502262
1.7176796421884298e+18,0.03523279735345238,0.030244211599880947,-0.006813855780857142
1.7176796423884298e+18,0.015695181335164708,0.021690467636352937,-0.008250031239188237
1.7176796425884298e+18,0.007904654476809523,0.006108472617285713,0.0005526713240857143
1.7176796427884298e+18,0.002637422849037647,0.004177117263440002,-0.0016385079526023533
1.7176796429884298e+18,-0.0020943334839392852,-0.004443186646142857,-0.0026324608064202384
1.7176796431884298e+18,-0.016809079389882353,-0.021729993075176472,0.0012576267097058824
1.7176796433884298e+18,-0.02633915207369048,-0.02270315645202381,0.0022179573315583333
1.7176796435884298e+18,-0.023510347630833334,-0.020187047332380952,0.0012289665119428572
1.7176796437884298e+18,-0.004671184880292941,-0.00605637087179765,0.0018541010971776467
1.7176796439884298e+18,0.02128511792610714,0.020085239639047615,-0.0022397732773690483
1.7176796441884298e+18,0.02891104155635294,0.026862906840000002,-0.005616201552744706
1.7176796443884298e+18,0.014194926801107142,0.013667707476785716,-0.004639530347671429
1.7176796445884298e+18,0.006870235069809412,0.009456454606541176,-0.00045813540363647047
1.7176796447884298e+18,0.0003563275621916668,0.0027160886930964285,-0.0006253912572357144
1.7176796449884298e+18,-0.006123016588307144,-0.006039388664114286,-0.0017380058694059525
1.7176796451884298e+18,-0.014530978296764703,-0.018714383826000002,0.0003395591931388235
1.7176796453884298e+18,-0.019779816078154763,-0.01652559995113095,0.003214220140186905
1.7176796455884298e+18,-0.019230908988235297,-0.018390994213058818,0.0004689150879870588
1.7176796457884298e+18,-0.0004508634997940482,-0.0014362182431666664,0.0008435509544250002
1.7176796459884298e+18,0.019223722607411765,0.01843950251082353,-0.0028943380333458827
1.7176796461884298e+18,0.022834052332011905,0.022728608477738096,-0.003912331239919048
1.7176796463884298e+18,0.01427491866247619,0.013834963253738094,-0.0051340257327380946
1.7176796465884298e+18,0.005799455773599999,0.005891981134400002,-0.000989931903907059
1.7176796467884298e+18,0.0026906367304821432,0.002388849068939286,-0.0038977872424154755
1.7176796469884298e+18,-0.009672946055011764,-0.010967403204618824,0.0024379992194482358
1.7176796471884298e+18,-0.02032521526738095,-0.022997672048928573,0.000618119245325
1.7176796473884298e+18,-0.024110500711999997,-0.020331332394705876,0.0020858637041588244
1.7176796475884298e+18,-0.02274678855925,-0.021332386326666668,0.004959497979552381
1.7176796477884298e+18,0.006493888154284525,0.009951719869486906,-0.001636198046032143
1.7176796479884298e+18,0.028451109239294118,0.027350686008705886,-0.003045253226130588
1.7176796481884298e+18,0.022390460862142855,0.023637607138690477,-0.008333701898440477
1.7176796483884298e+18,0.013912944596258827,0.010994352320752939,-0.0018954231040541176
1.7176796485884298e+18,0.005483081367747618,0.004534086489915478,-0.0010835266993595237
1.7176796487884298e+18,-0.0006180337300341176,0.00035123715680823525,-0.001837931643731765
1.7176796489884298e+18,-0.014296734838083337,-0.015551153115976189,0.0007271990858333333
1.7176796491884298e+18,-0.017089179187333336,-0.019703460103809526,-4.3631954090476345e-05
1.7176796493884298e+18,-0.022608534914705884,-0.020762518683882358,0.0023948805701117654
1.7176796495884298e+18,-0.019692552210035713,-0.018692653360035713,0.0004072314885630953
1.7176796497884298e+18,0.01874223113425882,0.01680818092277412,-0.0010689827257917648
1.7176796499884298e+18,0.0342947104277381,0.03536005712880952,-0.007831934458919047
1.7176796501884298e+18,0.016952807831577647,0.01200764017927765,0.012348097506419997
1.7176796503884298e+18,0.003715987497426191,0.010118975720989286,-0.013031408134857142
1.7176796505884298e+18,0.003068780288113095,0.001472578233945238,8.726392760595206e-05
1.7176796507884298e+18,-0.005943184482529413,-0.005613506637564707,-0.0017876265432682354
1.7176796509884298e+18,-0.011547921972773809,-0.01832905379607143,0.0017161899291869046
1.7176796511884298e+18,-0.02600772045576471,-0.023450246781176475,-0.00023535589603294118
1.7176796513884298e+18,-0.023619427323333334,-0.020147051507619047,0.00010907983787380954
1.7176796515884298e+18,-0.0015882028425070593,-0.0009063894967882359,-0.00019223726260000004
1.7176796517884298e+18,0.030164219483809523,0.02773173805309524,0.0002690636507499999
1.7176796519884298e+18,0.021801429556666665,0.02259044063190476,-0.007890110371940475
1.7176796521884298e+18,0.010679047259835294,0.004900252645164708,-0.0006809150293388237
1.7176796523884298e+18,0.004108675037820238,0.005552165286346429,0.00010180788138095244
1.7176796525884298e+18,0.0015307113583694115,0.004663100169912942,-0.0031746091224435294
1.7176796527884298e+18,-0.011606097897357143,-0.012278757114428572,0.0025597409035523814
1.7176796529884298e+18,-0.021120942121411763,-0.017514248696823526,6.647455880352944e-05
1.7176796531884298e+18,-0.018485401779166667,-0.016176544607619043,0.0007999189927035713
1.7176796533884298e+18,-0.02092151861059524,-0.011791533790075,-0.004232298849128572
1.7176796535884298e+18,0.014408808863470589,0.005884794665201178,0.0030991515268164703
1.7176796537884298e+18,0.019721640273333334,0.019412580301666666,-0.00399959512000238
1.7176796539884298e+18,0.015580198409623528,0.013782690301929414,-0.005172438974235293
1.7176796541884298e+18,0.011773353625329764,0.010380767353885711,-0.016412883865458333
1.7176796543884298e+18,0.004275930818308333,0.003857791347953573,0.0035487317348857146
1.7176796545884298e+18,-0.002414643285164706,-0.005376354182167058,0.0003539320758247059
1.7176796547884298e+18,-0.0021743253733297616,0.003865063300605952,-0.007591958701617857
1.7176796549884298e+18,0.0019259654722717653,0.002873677028845883,-0.0063653877277658815
1.7176796551884298e+18,0.007024743513690476,0.00280335258572619,-0.00046540746305357155
1.7176796553884298e+18,-0.004613693401049413,-0.004858930640276471,-7.725423882235291e-05
1.7176796555884298e+18,-0.016703763693440475,-0.02160872180928572,0.005744873069051191
1.7176796557884298e+18,-0.024419346458440478,-0.026015548368095234,0.005686697110904762
1.7176796559884298e+18,-0.01465314766735294,-0.012462182468970583,0.007030133322611764
1.7176796561884298e+18,0.024492066353214284,0.02497565387640476,-0.0014907581944119046
1.7176796563884298e+18,0.027667787670823528,0.023498755200941173,-0.006049184468729412
1.7176796565884298e+18,0.017372786937165475,0.009209976864011905,0.00041450353633333347
1.7176796567884298e+18,0.0018541010974364711,0.003642625894285883,-0.0043316257304011774
1.7176796569884298e+18,-0.0013744063408749998,-0.0006290272498154762,-0.003286940002540476
1.7176796571884298e+18,-0.014798502082178573,-0.015056657894523803,0.003119684176442857
1.7176796573884298e+18,-0.018993756475929418,-0.018743129502352945,-0.0007671522816882353
1.7176796575884298e+18,-0.020405207383095238,-0.018874452893928573,0.0029233404291595234
1.7176796577884298e+18,-0.006898980940845884,-0.007618522833805881,0.0004186099963411763
1.7176796579884298e+18,0.026731839137619055,0.02543378916261905,-0.004646802298809523
1.7176796581884298e+18,0.032921073958352934,0.01861197710556706,0.0012234911627729413
1.7176796583884298e+18,0.006835671721288096,0.010169879616205952,-0.008653669592635716
1.7176796585884298e+18,0.0012653264760238096,0.0037923433682547623,-0.0009380868251702379
1.7176796587884298e+18,-0.0022852873868105883,-0.002314931434414118,-0.002542202543757647
1.7176796589884298e+18,-0.015278453473130954,-0.014627610295011906,0.0006472072377047621
1.7176796591884298e+18,-0.019834569792529417,-0.019691739286588236,0.0011875589604447062
1.7176796593884298e+18,-0.02127057406988095,-0.01904898070404762,0.00206524546454881
1.7176796595884298e+18,-0.009004607259385882,-0.008588692180225883,0.0009144742519670587
1.7176796597884298e+18,0.02049247108866667,0.02109241036104762,-0.002450661056575
1.7176796599884298e+18,0.025030193739523813,0.02553559708916666,-0.004886778033996429
1.7176796601884298e+18,0.013970436133823528,0.01105184389077647,-0.0025925076272494112
1.7176796603884298e+18,-0.03578546857263215,-0.01654014403247262,-0.006261184347908334
1.7176796605884298e+18,-0.16041567667529413,-0.06933565525388236,-0.057597506555958806
1.7176796607884298e+18,-0.15019570681976194,-0.11005795028071426,-0.035007365445333324
1.7176796609884298e+18,-0.05522059230444706,-0.0257139749416,0.0494588656701553
1.7176796611884298e+18,-0.04435914614986905,0.03649448779127381,-0.034367430426684525
1.7176796613884298e+18,-0.05216199260809523,-0.011478838371010717,0.07181091343649999
1.7176796615884298e+18,-0.14401622544957646,-0.14599339330847055,0.05599852421819999
1.7176796617884298e+18,-0.6572643777440477,-0.37326767081904766,0.020936062507910712
1.7176796619884298e+18,-0.7997859102858822,-0.3817948087176471,-0.0875505813666506
1.7176796621884298e+18,-0.13470636375187023,-0.09637206284703573,0.19055525622789285
1.7176796623884298e+18,0.039597274841811775,0.10073140838071765,-0.06860712926546118
1.7176796625884298e+18,0.13090311282835593,-0.009100897257891667,0.03281849650297262
1.7176796627884298e+18,0.31649887296190476,-0.016452879922544045,0.04330470777791428
1.7176796629884298e+18,0.3155708803870588,-0.08010812621948236,0.013914741167125882
1.7176796631884298e+18,0.13477908422916665,-0.1200714822869762,0.0014398541338333315
1.7176796633884298e+18,-0.20007763009800006,0.003391100577343529,0.027324635274599995
1.7176796635884298e+18,-0.31726243178988095,0.028691641141178573,0.011293402568869047
1.7176796637884298e+18,-0.2609826935111765,0.012984996260635293,-0.05021703452779999
1.7176796639884298e+18,0.08217350078833215,-0.08098452952329763,0.04991494729022619
1.7176796641884298e+18,0.3530042677036905,0.026408235631646425,-0.06282273175209523
1.7176796643884298e+18,0.2784601125623529,-0.05572454134309058,-0.028125923405430582
1.7176796645884298e+18,0.14137477989270117,-0.07790847751791666,0.020296127217425002
1.7176796647884298e+18,-0.17323628260411764,0.08985114013605999,-0.010037657725705883
1.7176796649884298e+18,-0.34827747409642856,0.002839712456788097,0.025241081279675
1.7176796651884298e+18,-0.17915072207505883,-0.08562731119802001,0.06633262279317648
1.7176796653884298e+18,0.1510247116859643,0.08065729014710953,0.02442661819045238
1.7176796655884298e+18,0.3959162874717857,0.038719716682499995,-0.004210482916098809
1.7176796657884298e+18,0.1745442143093412,-0.01503492660194001,0.00846023424679647
1.7176796659884298e+18,-0.17310247783734525,-0.06320451134210714,0.024172098656366662
1.7176796661884298e+18,-0.2713599113823529,-0.013719808967541179,-0.03664185220701176
1.7176796663884298e+18,-0.3208329798249999,0.07124006178780118,-0.058881312364999994
1.7176796665884298e+18,0.1365063963146941,0.019136587230320003,0.07114034973519294
1.7176796667884298e+18,0.5981030939821428,-0.3677482323487619,0.042181185127547614
1.7176796669884298e+18,0.10061526925904761,0.037621646109538096,-0.1093616562935476
1.7176796671884298e+18,-0.20169457902988236,0.0617665391343647,0.006095896455764706
1.7176796673884298e+18,-0.2162908334297619,-0.03295302813477381,0.10185150874718574
1.7176796675884298e+18,-0.21337254099017647,0.1925956496710847,0.03636517453712942
1.7176796677884298e+18,0.17164080829309522,0.09584848006929761,-0.02997514743964285
1.7176796679884298e+18,0.3452293117235294,0.0061650659075894116,-0.023957788664564713
1.7176796681884298e+18,0.2899488324678571,-0.11647184718732972,-0.06631328785167856
1.7176796683884298e+18,-0.25661402623678575,0.10655285110260715,0.03822885767609167
1.7176796685884298e+18,-0.14031520798331765,-0.07954758387403531,0.06257411534758824
1.7176796687884298e+18,-0.13730973651428574,0.13718247747270954,-0.02897161335159286
1.7176796689884298e+18,0.09090125874068236,-0.0353150571526706,0.01289696228447059
1.7176796691884298e+18,-0.08584585604254762,-0.17281523327234524,-0.06895302069197619
1.7176796693884298e+18,-0.1899591258921894,-1.188730328192941,0.3011863275180824
1.7176796695884298e+18,0.9871737087986312,-0.4353641089531428,-0.3431798077757774
1.7176796697884298e+18,0.6972294258178573,0.24059019203389287,-0.41177650018333317
1.7176796699884298e+18,0.25634025490005885,0.7317725573964705,-0.671570866255294
1.7176796701884298e+18,-0.6448947159334524,0.9275679269107141,-0.8980981828178571
1.7176796703884298e+18,-0.18414529523668235,0.3115096443674118,-0.35783252698423523
1.7176796705884298e+18,0.08612946323546311,-0.07246902799441549,0.05576162846357144
1.7176796707884298e+18,0.022256399715894118,0.0015010674324011776,0.10891226909329411
1.7176796709884298e+18,-0.08636943929214286,0.06565517223809522,0.029058876628935713
1.7176796711884298e+18,-0.04489727372642857,0.07371253886309523,-0.003592363696313095
1.7176796713884298e+18,0.01389857182682235,0.008277878626264704,0.02028911190192941
1.7176796715884298e+18,0.029124324567822626,0.017827286287880956,0.022521356827782148
1.7176796717884298e+18,-0.017800807769011762,0.02404492440487059,-0.020515484797174115
1.7176796719884298e+18,0.006333904390714285,0.005770324987703573,0.004872234134933333
1.7176796721884298e+18,-0.00973762401446,-0.0025448974770317647,-0.0076517602010858846
1.7176796723884298e+18,-0.030229667201309526,-0.003617815602108333,0.0033160279786071424
1.7176796725884298e+18,-0.02993878731071429,0.0019525296564630948,-0.0057448730049083335
1.7176796727884298e+18,-0.016456943804788234,-0.013698249856624708,0.011169522029196471
1.7176796729884298e+18,0.0032069480734869043,0.0003381475275845238,0.00974446826354643
1.7176796731884298e+18,-0.0024936941666717644,0.025467838883828243,-0.0062216587931917654
1.7176796733884298e+18,0.001614382066034524,0.02533198134294881,0.01603474058890476
1.7176796735884298e+18,0.014301012245151765,-0.003816897097736469,0.012973317903319995
1.7176796737884298e+18,-0.0013816783205345242,0.015114833641657145,-0.009489948453907143
1.7176796739884298e+18,-0.022208661151578574,-0.008540953622473809,-0.0003635995482238093
1.7176796741884298e+18,-0.03698859810001177,0.023958687169355296,-0.03194192174670588
1.7176796743884298e+18,0.051049378012952396,0.014787594081720238,-0.003854155273360715
1.7176796745884298e+18,-0.009363929136163528,0.007350828132297648,0.004658608524764707
1.7176796747884298e+18,-0.009722652287285714,0.011238862413908332,-0.007962830229698811
1.7176796749884298e+18,0.016248537161294114,0.01045536948662353,-0.003303964970282353
1.7176796751884298e+18,0.01062437915204762,0.00882456134890476,-0.0016289260258023808
1.7176796753884298e+18,-0.008719117364120238,0.005443085413797618,-0.018252697746165475
1.7176796755884298e+18,0.008602166701823528,-0.0009638810390776471,0.004241795236554117
1.7176796757884298e+18,0.006508432120773808,0.00019270774877380945,-0.002843348534584524
1.7176796759884298e+18,-0.0059863031266482345,-0.005642252378729413,0.0028548126143247057
1.7176796761884298e+18,-0.014994845941071425,-0.004621350380863094,-0.0006181192654107143
1.7176796763884298e+18,-0.015256808642588233,-0.005484150726079999,0.002689524537922353
1.7176796765884298e+18,-0.017460050881547617,0.0003381475897285714,-0.0012725984325297622
1.7176796767884298e+18,-0.0040068671806904755,0.0005417633346392857,0.00037087154515833356
1.7176796769884298e+18,0.01803796031588235,0.009398963047941179,-0.0008749488706247061
1.7176796771884298e+18,0.012216945200690478,0.008555497652476192,-0.0031633161844023807
1.7176796773884298e+18,0.005547930415248236,0.007487370466427059,-0.004769998412064706
1.7176796775884298e+18,0.007446519010301192,0.002279769230327381,-0.0037814353722464287
1.7176796777884298e+18,-0.004290303727671765,-0.0039965580197529405,-0.0002353558543082355
1.7176796779884298e+18,-0.010777090887047619,-0.00371235150925,-7.999190777976194e-05
1.7176796781884298e+18,-0.010900714844319048,0.0004908593915249999,0.00023997568399404756
1.7176796783884298e+18,-0.015242435760705884,-0.003292287069679999,-0.0013851859866552943
1.7176796785884298e+18,-0.006741135846878571,7.635589106547633e-05,-0.0015852941002464285
1.7176796787884298e+18,0.009263319069988235,0.006876523205249411,-0.0021182027111411768
1.7176796789884298e+18,0.018325417648997623,0.00560306918322262,-0.007213815157594049
1.7176796791884298e+18,0.013726097213070589,0.005266760968001177,-0.0075080314406588255
1.7176796793884298e+18,0.002392485097575,0.0009562668585630954,-0.007446518983672621
1.7176796795884298e+18,0.003832339378496429,0.006206644448059524,0.00028360763783809523
1.7176796797884298e+18,-0.0012288809617894117,-0.0010716776053129415,-0.002125389187630588
1.7176796799884298e+18,-0.010973434623250001,-0.005544893246892857,0.0006981111461714285
1.7176796801884298e+18,-0.011670775864505883,-0.005397913484576472,-0.000551559129604706
1.7176796803884298e+18,-0.011155234522238095,-0.005254013632989286,-0.0005672153271083333
1.7176796805884298e+18,-0.006776811359944705,-0.003788151290458823,-0.001924168817621177
1.7176796807884298e+18,0.007250175215476192,0.0021706893671928577,0.00039268750701428566
1.7176796809884298e+18,0.011031610602261904,0.007937378391416668,0.0007635590542476189
1.7176796811884298e+18,0.0163563336844,0.008428793812941177,-0.00525867619877647
1.7176796813884298e+18,0.007664678717857145,0.005355821537460715,-0.0043631946891583345
1.7176796815884298e+18,0.0008983048087776469,0.007688590706012941,-0.005905455711735296
1.7176796817884298e+18,-0.0073665271269380975,-0.004846782088648809,0.0014471262347154766
1.7176796819884298e+18,-0.016428198061764702,-0.0076760143959729394,-0.0007743387030529409
1.7176796821884298e+18,-0.013329559905676195,-0.007006563476323809,0.002545196900428572
1.7176796823884298e+18,-0.015067565808702377,-0.007348347099069049,-0.0003417835630714285
1.7176796825884298e+18,-0.0011354572661423528,0.0005452709894341178,-3.413562523176474e-05
1.7176796827884298e+18,0.015452981293690478,0.0063157243358285715,-0.002966972415203571
1.7176796829884298e+18,0.012317555365070591,0.003506083577969412,-0.001169592841288235
1.7176796831884298e+18,0.008297342038620238,0.016321984225214286,-0.010588019132833335
1.7176796833884298e+18,-0.0048149136907776465,0.0014579486752858823,-0.006121048686801179
1.7176796835884298e+18,-0.07654497927642857,-0.025964644508213088,-0.016376524028661903
1.7176796837884298e+18,-0.05478718176166665,-0.017979998014044048,0.01943803262517143
1.7176796839884298e+18,-0.03734073362197647,-0.08135856657317647,0.20563454321729413
1.7176796841884298e+18,-0.019634376205095238,-0.12132226480333332,0.23172927116428574
1.7176796843884298e+18,-0.04619442557576471,0.011540521709518822,0.06577207981031764
1.7176796845884298e+18,0.010835266796903572,0.06633146723535714,-0.01348227149067857
1.7176796847884298e+18,0.015637689697201175,0.0021981521268470607,0.04539134102831764
1.7176796849884298e+18,0.1339209896222488,-0.1489849192249643,0.21353293249375954
1.7176796851884298e+18,-0.017881826209142863,0.0014580341315011895,0.019983431742547617
1.7176796853884298e+18,-0.04814913673292941,-0.014869639033882357,-0.09718759565848237
1.7176796855884298e+18,0.01355499160022381,-0.12886331935654766,0.017205531439407142
1.7176796857884298e+18,-0.03880676737697529,0.06553941955666354,0.07353343372834942
1.7176796859884298e+18,0.01594747661675,0.026022821051690473,-0.047784254224059526
1.7176796861884298e+18,0.04541358525808333,0.011507925873595237,0.011177050257414287
1.7176796863884298e+18,-0.4774067765334118,-0.932916474922212,-1.3349366225002706
1.7176796865884298e+18,-2.941164109765476,-6.082998806488096,-0.8224231174847263
1.7176796867884298e+18,8.24399010437647,-2.5076555493894115,0.7167529019738824
1.7176796869884298e+18,8.087144142035713,-2.3485177300730955,2.3671185700476185
1.7176796871884298e+18,5.817065239023529,-1.0681859131493177,1.7276224683825885
1.7176796873884298e+18,2.9920471239404764,2.324934658803929,0.6676642284609524
1.7176796875884298e+18,2.0430986441547616,-0.8243811030377131,1.5234267072646426
1.7176796877884298e+18,1.9498855380247053,3.3034673726305877,-3.225155859321176
1.7176796879884298e+18,0.25797207277785716,-0.41845218881654767,-0.8300641584870595
1.7176796881884298e+18,0.27237589094048237,-0.1441024667102353,0.07561031141988236
1.7176796883884298e+18,0.43062731894761913,-0.3876771210950476,-0.35766834327682145
1.7176796885884298e+18,1.8768982744716471,-3.4912103650674124,-1.2869374951447057
1.7176796887884298e+18,-0.3092850591284881,1.5141458301940476,-0.5457847559886191
1.7176796889884298e+18,0.6730218735476191,0.17188442141814286,0.11528560267627382
1.7176796891884298e+18,0.28881577030263533,0.0454389521012941,0.08427715885578825
1.7176796893884298e+18,0.16939376161690475,0.1520027950533333,0.03730531478630953
1.7176796895884298e+18,0.11483928560584702,0.13820868370962355,-0.01668511311847059
1.7176796897884298e+18,0.09108168964242974,0.11102512631222619,-0.013191391991371431
1.7176796899884298e+18,-0.028594838577223523,-0.06243667460901177,0.0031566430605352944
1.7176796901884298e+18,-0.15454435730679764,-0.08507866052846429,-0.02077607885489881
1.7176796903884298e+18,0.0818317163340357,0.0554743848494881,-0.004501362483678571
1.7176796905884298e+18,0.17021797861008234,0.20600554294985882,0.015280164553858826
1.7176796907884298e+18,-0.06939595148090909,-0.3374584041787879,-0.020319926277333332
1.7176796909884298e+18,,,
