Timestamps,Gyro_X,Gyro_Y,Gyro_Z,Label
1.7176898901774797e+18,-0.0195672532079,0.1678225630855,-0.0634157212014999,1
1.7176898903774797e+18,-0.06381935235156,0.059747209499,-0.00458371118115,1
1.7176898905774797e+18,-0.02206687791635,-0.3200516000779999,0.03723215864805,1
1.7176898907774797e+18,-0.507601657782145,0.3212781585795,0.16359020732875,1
1.7176898909774797e+18,-0.926917251975,-0.0134448927814999,-0.0980564524425,1
1.7176898911774797e+18,-0.4011369910164999,0.0308282216955,-0.1218146864755,1
1.7176898913774797e+18,0.3442537666842105,0.0432239902275789,0.003622962701421,1
1.7176898915774797e+18,0.81623773277,-0.1666467580885,-0.0516999901783499,1
1.7176898917774797e+18,0.5179565493110001,-0.255043460425,0.120047807692,1
1.7176898919774797e+18,-0.8281931817349999,0.1979540507719,-0.0937227855915,1
1.7176898921774797e+18,-0.56966859251,0.1299491992077,0.0104525838563499,1
1.7176898923774797e+18,0.1806722745713699,0.0344291044914999,-0.0017911199815499,1
1.7176898925774797e+18,0.633836972715,-0.07483902757495,0.0382703025353,1
1.7176898927774797e+18,0.5314899106668421,-0.1455631996342105,0.1748491815789473,1
1.7176898929774797e+18,-0.74095326439,0.19849517657295,-0.066455889869,1
1.7176898931774797e+18,-0.67373637557,0.1137696880904999,0.00451194661385,1
1.7176898933774797e+18,0.02266908397845,-0.0592337193892,-0.1233278266195,1
1.7176898935774797e+18,0.6665414378000001,-0.1481019066625,-0.0338142278135,1
1.7176898937774797e+18,0.489905717965,-0.213463471456,0.0611541421145,1
1.7176898939774797e+18,-0.141108478614,-0.0107319965974999,-0.0078704739375999,1
1.7176898941774797e+18,-0.7451326250947369,0.4109207922452631,-0.0180870239716842,1
1.7176898943774797e+18,-0.544292375445,-0.05911418087,0.05681979407995,1
1.7176898945774797e+18,0.0298588966944999,-0.004716331044,0.007625194638,1
1.7176898947774797e+18,0.5184137776550001,-0.032130621797285,0.02266305678945,1
1.7176898949774797e+18,0.55885588974,-0.1629872789535,0.0163283753628,1
1.7176898951774797e+18,0.0319893941335,0.0017972936815,-0.03307223784216,1
1.7176898953774797e+18,-0.6670879078578948,0.1669014344138421,-0.0874406665702631,1
1.7176898955774797e+18,-0.60443699509,0.06114349026705,0.072879882308,1
1.7176898957774797e+18,0.0834361253667,0.0207703684991,-0.01194574605085,1
1.7176898959774797e+18,0.5018598139200001,-0.1184589775234999,-0.0423433698546499,1
1.7176898961774797e+18,0.548541165885,-0.037394578125,0.077579154453,1
1.7176898963774797e+18,-0.0077675469269999,-0.0391069535642999,-0.01054087897565,1
1.7176898965774797e+18,-0.72190338228,0.2565565677364999,-0.0666249822399,1
1.7176898967774797e+18,-0.5496158019368421,-0.0808588143747368,0.0320578926263157,1
1.7176898969774797e+18,-0.056404751163,-0.0329258488549999,-0.01098733359065,1
1.7176898971774797e+18,0.4786470770750001,-0.0444282324965,0.0217558549717,1
1.7176898973774797e+18,0.48201844245,-0.06335641099075,0.0317557984282049,1
1.7176898975774797e+18,0.433567239345,-0.02088221353305,0.0552351218648,1
1.7176898977774797e+18,-0.107418500344,0.0995217402049999,-0.0264655179343,1
1.7176898979774797e+18,-0.50655919313,0.0182485965975,-0.126755361989,1
1.7176898981774797e+18,-0.2845764277684211,-0.0623660118978947,0.0142872961878947,1
1.7176898983774797e+18,-0.1228951476941,-0.0071139380624499,-0.01037189024425,1
1.7176898985774797e+18,0.230049221546,0.0433331232545499,-0.0218896424417,1
1.7176898987774797e+18,0.2382398404149999,-0.1026843497015,-0.159038266913,1
1.7176898989774797e+18,0.095102919458,0.069491782034,0.1802874207821,1
1.7176898991774797e+18,0.0440935966656215,-0.01581346481365,0.2209493383899999,1
1.7176898993774797e+18,-0.0262088538794052,0.0372413135344631,0.1167749956626315,1
1.7176898995774797e+18,9.013131089999636e-06,0.0057305202109999,0.04766952806195,1
1.7176898997774797e+18,0.0103124799207,-0.00085023508975,0.0218548941188,1
1.7176898999774797e+18,0.0261553014621499,-0.0047012204779999,0.00555575573875,1
1.7176899001774797e+18,0.0095552064739199,-0.01841838597295,0.0156014969678249,1
1.7176899003774797e+18,0.014488145152995,-0.0134366177032999,-0.01043589805525,1
1.7176899005774797e+18,0.0116313570327694,0.0301472622896,-0.038763799495,1
1.7176899007774797e+18,-0.0010133799018526,0.0373430888801052,-0.0304501395014105,1
1.7176899009774797e+18,0.012893616922505,0.02545525054495,-0.017569877416975,1
1.7176899011774797e+18,0.00758820190124,0.0290476680735499,-0.0257931990843,1
1.7176899013774797e+18,-0.0017087595315,0.041534185874315,-0.0336776334326,1
1.7176899015774797e+18,-0.0146054470687349,0.02082830406721,0.002545159950605,1
1.7176899017774797e+18,-0.008299553609225,-0.0264293716293,0.0241444495271425,1
1.7176899019774797e+18,-0.008238312980225,-0.01345285573125,0.0117501807977999,1
1.7176899021774797e+18,0.0063527564179,0.0065875821990526,-0.0056777277300842,1
1.7176899023774797e+18,0.003524625406755,-0.004739188099935,0.00571747290626,1
1.7176899025774797e+18,0.0035123673471999,-0.018713379558155,0.017305996130155,1
1.7176899391774797e+18,-0.318310311814,0.0721316359969999,0.0130586765239999,2
1.7176899393774797e+18,-0.7212386758842105,-0.0132123899528421,-0.1822502934457894,2
1.7176899395774797e+18,-0.126557044312,0.0562150385284999,0.0593231586304,2
1.7176899397774797e+18,0.334059929855,-0.12131436634105,-0.0142710779803,2
1.7176899399774797e+18,0.615763546525,0.03296342114605,0.0853327707404999,2
1.7176899401774797e+18,-0.0764206752149999,-0.0508481477789,0.0984085210684299,2
1.7176899403774797e+18,-0.92962486154,0.0773881291572499,-0.1906053587835,2
1.7176899405774797e+18,-0.0872863555373,0.1572672839795499,0.0216300056787599,2
1.7176899407774797e+18,0.557874116463158,-0.1155445784632631,-0.007508625313421,2
1.7176899409774797e+18,0.6204267621099999,-0.1377425877414,0.103991146383,2
1.7176899411774797e+18,-0.2183279246065,0.0216632353205,-0.0556935872004999,2
1.7176899413774797e+18,-0.84243614524,0.1008634589695,-0.10028337323975,2
1.7176899415774797e+18,-0.1906818899523999,-0.053613602095,0.035135160665,2
1.7176899417774797e+18,0.284513450795,0.1961824071585499,0.0614701606765,2
1.7176899419774797e+18,0.6227009445350001,-0.32352595597385,0.0153693308180999,2
1.7176899421774797e+18,0.3409882325057894,0.1281710445468421,0.1008237410136842,2
1.7176899423774797e+18,-0.1097335192689999,0.0587938367405,-0.017444304373,2
1.7176899425774797e+18,-0.017763086039,-0.1013698289248999,-0.10211607108515,2
1.7176899427774797e+18,0.0204628423363,-0.0094832626381999,-0.03276548278555,2
1.7176899429774797e+18,-0.2671093400577,-0.05097308107515,-0.0061140394300249,2
1.7176899431774797e+18,-0.938516211525,0.0803395761918599,-0.00884152734495,2
1.7176899433774797e+18,-0.2892654070908948,-0.0104352304881578,-0.0767290380378947,2
1.7176899435774797e+18,0.364122873545,-0.0210437177140999,0.05201444578088,2
1.7176899437774797e+18,0.5278711408300001,-0.0057909366159499,0.0533444535357,2
1.7176899439774797e+18,0.36035411654625,-0.0291353434341499,0.0770807361245,2
1.7176899441774797e+18,-0.600358231375,0.0433762959635,-0.15812961107105,2
1.7176899443774797e+18,-0.491956026855,0.01020030705565,-0.064156733552845,2
1.7176899445774797e+18,-0.0779505551088999,0.01701988517345,-0.017114161508,2
1.7176899447774797e+18,0.2115600998321578,0.0097612631501052,0.1017706428510526,2
1.7176899449774797e+18,0.4305440962349999,0.05882799713935,0.127942804996,2
1.7176899451774797e+18,0.2275825485649999,-0.0825207548757,0.13544926392065,2
1.7176899453774797e+18,0.07383869325765,-0.00871253623585,0.06836941359045,2
1.7176899455774797e+18,0.0380015588365,-0.068370513337,0.109748784173,2
1.7176899457774797e+18,-0.02209698152765,0.01333967192555,0.1361911569675,2
1.7176899459774797e+18,-0.042839315469845,0.0934423126305,0.0834133005173,2
1.7176899461774797e+18,0.0047919628039473,0.0444350071523263,-0.0130773925302842,2
1.7176899463774797e+18,-0.0006724859066639,0.00451707423235,-0.022607501852785,2
1.7176899465774797e+18,-0.002882722608695,0.0074405791462499,-0.0159741401381325,2
1.7176899467774797e+18,-0.0051514960271049,0.01756531209735,-0.0030225807218989,2
1.7176899469774797e+18,0.001802107243565,-0.0318907177543,-0.0083820934181,2
1.7176899471774797e+18,0.0116795378732499,-0.0861863180469,-0.083984070077,2
1.7176899473774797e+18,-0.0109348254222049,-0.234146498524,-0.0505614706786,2
1.7176899475774797e+18,-0.0242361575739668,0.01435508071697,-0.072361830568421,2
1.7176899477774797e+18,-0.108667981988,0.0613733441555,-0.089981553549795,2
1.7176899479774797e+18,0.021737561290185,0.05816849507515,-0.113960335588,2
1.7176899481774797e+18,0.07995269770615,0.14868963756665,-0.19616534598,2
1.7176899483774797e+18,-0.0270136096998,0.0649183114972,0.0578902207319999,2
1.7176899485774797e+18,-0.018152684484785,-0.0597900774795,0.0510161929785,2
1.7176899487774797e+18,0.0093520435044736,-0.0130647246379999,-0.0362945437247368,2
1.7176899489774797e+18,-0.11976248363455,-0.0079153991319049,-0.03849265538,2
1.7176899491774797e+18,-0.0993607273239999,-0.01186375487745,-0.000655112537805,2
1.7176899493774797e+18,-0.0555934526035,0.003490288183151,-0.002695080678845,2
1.7176899809774797e+18,-0.66268222034,0.1916390735754999,-0.0189911528028,3
1.7176899811774797e+18,-0.597807848455,-0.1014047923969999,-0.16222995901395,3
1.7176899813774797e+18,0.10586698295445,0.0619950809971,0.0520233243264,3
1.7176899815774797e+18,0.508656138185,0.07074932367265,0.0260458290525,3
1.7176899817774797e+18,0.4684112787150001,-0.014669128833455,0.140323381869,3
1.7176899819774797e+18,-0.0026272784364999,-0.086655070644,0.0816309570414999,3
1.7176899821774797e+18,-0.6717422275263158,0.1422768731300526,-0.0673001086662631,3
1.7176899823774797e+18,-0.5176637976648,-0.0034035604504999,-0.1244174837994999,3
1.7176899825774797e+18,0.266402924249,0.0828940104309499,0.051690855666,3
1.7176899827774797e+18,0.6168431997250001,-0.1239429803054549,-0.04251433578865,3
1.7176899829774797e+18,0.4337568499149999,-0.0945720684691,0.09428622489755,3
1.7176899831774797e+18,-0.4743047676944999,0.246025772484,-0.04327939773149,3
1.7176899833774797e+18,-0.8490928069199999,0.0533373494173,-0.09204241120845,3
1.7176899835774797e+18,0.0240290735547368,-0.069614968311821,0.0227733729582578,3
1.7176899837774797e+18,0.453971515232,0.0582332121199999,0.0094984065735,3
1.7176899839774797e+18,0.559174808855,-0.1560685221535,0.05518588163,3
1.7176899841774797e+18,0.1212144931705,-0.0504789911269999,0.0903757089305,3
1.7176899843774797e+18,-0.820373570875,0.1414847524428999,-0.1183962468534999,3
1.7176899845774797e+18,-0.574266841445,-0.0198582094170499,-0.0409309544395499,3
1.7176899847774797e+18,0.2265050795515789,0.1491534188373684,-0.0148684934388421,3
1.7176899849774797e+18,0.4794701829599999,-0.0764764261929,0.0374937813729,3
1.7176899851774797e+18,0.46966467797,-0.1537231785215,0.0159404022157999,3
1.7176899853774797e+18,0.311033357687,0.029479420605715,0.088828126807,3
1.7176899855774797e+18,-0.5066535361100001,-0.010042653979,-0.07961398398025,3
1.7176899857774797e+18,-0.46062290816,-0.00189515198335,-0.05787005507895,3
1.7176899859774797e+18,-0.215054911743,-0.0916391400629999,-0.031049300087,3
1.7176899861774797e+18,-0.1159299509093684,-0.0386858433516842,-0.0043612536959473,3
1.7176899863774797e+18,0.165052557919,0.0288999660397499,0.0309456126343,3
1.7176899865774797e+18,0.1788206951685,0.020469954101585,0.0748757574746,3
1.7176899867774797e+18,0.01042639820905,0.0389664303535,-0.0469310290189,3
1.7176899869774797e+18,0.02329956567805,0.0240908515645999,0.00870593567285,3
1.7176899871774797e+18,0.0813763119269999,0.02361248391539,0.0640394453425,3
1.7176899873774797e+18,0.1149447185939999,0.0479806195980499,0.02881800319295,3
1.7176899875774797e+18,0.0740297948436842,-0.0037370321231473,0.0435091508127368,3
1.7176899877774797e+18,0.0022789349547999,-0.03213214603585,0.1042945716435,3
1.7176899879774797e+18,-0.0612463906414999,0.0268675628575499,0.0510162436404999,3
1.7176899881774797e+18,-0.0372416652511,0.07335453908705,-0.040903120478085,3
1.7176899883774797e+18,-0.0145811271715979,0.021488662762785,-0.073330270209815,3
1.7176899885774797e+18,0.0307174636583899,-0.0537055155481499,-0.0655737409385,3
1.7176899887774797e+18,0.019192915385,-0.0640955079659473,-0.0624956250360526,3
1.7176899889774797e+18,0.080331891588,-0.060613621401,-0.0977559180981,3
1.7176899891774797e+18,0.0916224665934999,-0.05302751005869,-0.207783681905,3
1.7176899893774797e+18,0.03466728313435,0.0938789947422499,-0.19830227531,3
1.7176899895774797e+18,-0.03465360121355,-0.2053844306327999,0.0489368632339499,3
1.7176899897774797e+18,0.0107939691748,-0.06244682716115,0.02291614833398,3
1.7176899899774797e+18,0.03600476185605,-0.03085401379445,0.04349346780145,3
1.7176899901774797e+18,0.0290853719248947,-0.0245109891593157,-0.1012893340674736,3
1.7176899903774797e+18,0.022785722918,-0.0421058180282499,-0.0675439915158,3
1.7176899905774797e+18,0.019543830575855,-0.0069016949789999,-0.052425656781855,3
