Timestamps,Acc_X,Acc_Y,Acc_Z
1.717763707290696e+18,0.8049689156476192,2.4564061627142855,9.396951795238095
1.717763707490696e+18,0.8756341095250001,2.4182063140000003,9.371157577249999
1.717763707690696e+18,0.7213574294949999,2.3771916045499992,9.41839933775
1.717763707890696e+18,0.6720724182300001,2.75573192595,8.6219954682
1.717763708090696e+18,0.6694902878049999,2.61927568805,8.25363397975
1.717763708290696e+18,0.374364006017,0.2018253021505,9.131146682899999
1.717763708490696e+18,-0.5781801682084999,-1.6559688948000002,10.254762611699999
1.717763708690696e+18,-1.8813163539000004,-2.947827104904762,12.479477364285716
1.717763708890696e+18,-1.6857270125499997,-2.4666904907,10.25215054325
1.717763709090696e+18,-1.691894187925,-0.881748893731,8.91637330635
1.717763709290696e+18,-1.70702023319,0.17311500551400005,9.917304359649998
1.717763709490696e+18,-0.8045619048899999,1.7904941483049999,8.335625976599998
1.717763709690696e+18,0.10698252870425,3.3542697601000007,7.54446869665
1.717763709890696e+18,-0.5312976608419999,1.0463765487945,8.80832050335
1.717763710090696e+18,-1.7958298383571427,-1.8065931701999998,9.437324981952381
1.717763710290696e+18,-1.96899794765,-3.8945936508500005,11.635027337
1.717763710490696e+18,-2.0509824599349993,-3.6202217102000005,10.85502934985
1.717763710690696e+18,-2.0040849837799994,-1.9124156112000006,9.000648056
1.717763710890696e+18,-1.40282281494,-0.6187158737299502,9.790398261550001
1.717763711090696e+18,-0.9012233963164998,0.60320812227465,9.1079299621
1.717763711290696e+18,0.09505982209275002,4.09796823115,7.453465438450001
1.717763711490696e+18,-0.607474250751,2.9986767196,7.718362083400001
1.717763711690696e+18,-0.42274233138,-0.20426807946714282,9.08153627652381
1.717763711890696e+18,-1.391671005175,-2.7308461762,10.632958649150002
1.717763712090696e+18,-1.1989617462550002,-3.8015396576000002,11.538433204799999
1.717763712290696e+18,-1.457863357535,-3.11166925045,10.499174355200001
1.717763712490696e+18,-0.8513995056699999,-0.711021423385,9.5843218
1.717763712690696e+18,-0.81780187222165,0.5867947540214999,9.214328704649997
1.717763712890696e+18,-0.29021649169049996,3.6248096695000003,7.4006552581500005
1.717763713090696e+18,-0.7652301243676192,3.0586822945238095,7.913664877714286
1.717763713290696e+18,-1.322185501125,0.4619393920789999,8.900641022
1.717763713490696e+18,-1.2349843368400002,-1.6413966979699999,10.0469796983
1.717763713690696e+18,-1.9653829650999999,-3.00603392025,11.32963989375
1.717763713890696e+18,-1.182353782625,-3.5615137939499997,11.367593468249998
1.717763714090696e+18,-1.1808344420949997,-1.0128387908799998,9.4734847868
1.717763714290696e+18,-1.0391690368035,0.616874702362,9.6408442608
1.717763714490696e+18,-1.0142982559355,2.357559929,8.0383666307
1.717763714690696e+18,-0.4716834149894763,3.326575208380952,8.139024810714286
1.717763714890696e+18,-0.43817630767099996,2.5093068695,8.576018577550002
1.717763715090696e+18,-0.7507338409197,0.83274080661,9.16870358255
1.717763715290696e+18,-0.787504875215,-1.1394230576050002,9.331332893549998
1.717763715490696e+18,-1.2704156571099998,-2.7672130508,10.677708091
1.717763715690696e+18,-0.44429109183249993,-3.56508387,11.2536354445
1.717763715890696e+18,-1.502388267535,-2.58533377065,10.470778403949998
1.717763716090696e+18,-0.7219914681285713,-0.9864843096219049,9.29874173809524
1.717763716290696e+18,-1.178589111265,0.586809722865,8.94509108735
1.717763716490696e+18,-0.8557255097158999,0.955919654835,9.99342107335
1.717763716690696e+18,-0.5215753783929999,1.7748965835199997,8.88496112835
1.717763716890696e+18,-0.33754806518905,2.96115724185,8.21958728025
1.717763717090696e+18,-1.0027348023170002,2.3000420379,8.666527862650003
1.717763717290696e+18,-0.8984840927725001,0.6264323273044999,8.507558441300002
1.717763717490696e+18,-1.8564844208,-1.9948566742160003,9.799806198050002
1.717763717690696e+18,-1.788480835038095,-3.5948672920952385,11.70096058457143
1.717763717890696e+18,-0.2324740676896,-1.502522987385,8.715573371900001
1.717763718090696e+18,-0.9251062316449999,-0.42577459719499994,10.374318992400001
1.717763718290696e+18,-1.78494069675,-0.359020912164,9.668229812649997
1.717763718490696e+18,-1.5497872009,-0.080128372197,9.6119094314
1.717763718690696e+18,-1.6372203828000003,-0.11093431090945001,9.674389503499999
1.717763718890696e+18,-1.4027554549499999,-0.15919395446142998,9.59769648745
1.717763719090696e+18,-1.337597024095238,-0.19555049351999995,9.717777492142856
1.717763719290696e+18,-1.5645016021000002,-0.1876273269675,9.67433711245
1.717763719490696e+18,-1.47735282905,-0.18670674134499998,9.6805042877
1.717763719690696e+18,-1.3695170745499996,-0.264260467525,9.705158020150002
1.717763719890696e+18,-1.3156890106499999,-0.2677856369,9.706856987
1.717763720090696e+18,-1.2654235383,-0.27460395813500005,9.727184715299998
1.717763720290696e+18,-1.2136986008000001,-0.22756427763999998,9.753717040949999
1.717763720490696e+18,-1.1943591743809523,-0.2087159729095238,9.728227190333333
1.717763720690696e+18,-1.1842847670499999,-0.156439682003,9.709424148500002
1.717763720890696e+18,-1.13859976965,-0.10306068419850001,9.722477004950001
1.717763721090696e+18,-1.1234886933,-0.053880455013999996,9.63505879205
1.717763721290696e+18,-1.1187285919999999,-0.11865824889199998,9.708473625149997
1.717763721490696e+18,-1.1271036759,-0.11879296876100001,9.7011912689
1.717763721690696e+18,-1.13030701445,-0.136074531551,9.743568145850002
1.717763721890696e+18,-1.1523935853,-0.218575469965,9.728382224999999
1.717763722090696e+18,-1.113206503714286,-0.20214392524761904,9.741706303142857
1.717763722290696e+18,-1.12953611755,-0.23518343353499999,9.729849174449999
1.717763722490696e+18,-1.12031529225,-0.24507037354,9.778280960050001
1.717763722690696e+18,-1.0857297135,-0.19108513641500002,9.733628814549999
1.717763722890696e+18,-1.07740702045,-0.10406359864599998,9.739915741050002
1.717763723090696e+18,-1.0730061722,-0.11036549377,9.713286117600001
1.717763723290696e+18,-1.0296188964,-0.072292167664,9.651374862599999
1.717763723490696e+18,-1.0865120151904764,-0.07269169398495239,9.732667955666667
1.717763723690696e+18,-1.02912492365,-0.118418746946,9.71921379085
1.717763723890696e+18,-1.0548564148100001,-0.15688874816999998,9.732019660899999
1.717763724090696e+18,-1.061435234145,-0.110926826472,9.725268699599999
1.717763724290696e+18,-1.0867475967,-0.192155410755,9.7248121491
1.717763724490696e+18,-1.0036479033699996,-0.170690048217,9.749555694449999
1.717763724690696e+18,-1.08403074655,-0.18708096313999997,9.77267511755
1.717763724890696e+18,-1.05145099645,-0.15625257109699997,9.750281684800001
1.717763725090696e+18,-1.0209697396619046,-0.11138266426523809,9.744422084380952
1.717763725290696e+18,-0.99382083892,-0.07314539337400001,9.72359218605
1.717763725490696e+18,-0.9982441406649999,-0.06501729583614,9.679157089250001
1.717763725690696e+18,-0.984031196625,-0.037983512879684996,9.722087814250001
1.717763725890696e+18,-1.024155258195,-0.0620310058595,9.69348978415
1.717763726090696e+18,-0.9916428681449998,-0.10482701111,9.762436408950002
1.717763726290696e+18,-0.975663597065,-0.145774360655,9.74163716135
1.717763726490696e+18,-0.9919372559190476,-0.14957467214761905,9.741100420238094
1.717763726690696e+18,-0.9914482726899999,-0.177149116513,9.750663391100002
1.717763726890696e+18,-0.9913135528850001,-0.184049766535,9.760535362150002
1.717763727090696e+18,-0.9984013138450003,-0.16777860259000005,9.7684838332
1.717763727290696e+18,-0.9636286239050001,-0.09598040771800001,9.74178685
1.717763727490696e+18,-0.996507751465,-0.06381978607184999,9.7367423401
1.717763727690696e+18,-0.9336235198899999,-0.00517174529961,9.741120735250004
1.717763727890696e+18,-0.9451944580199999,0.015410453796499999,9.660483421349998
1.717763728090696e+18,-0.954878605452381,0.005723811558380952,9.721441301571428
1.717763728290696e+18,-0.9409208450350002,-0.03740721130179,9.737700347899999
1.717763728490696e+18,-0.9633367309549998,-0.0654364242545,9.741203064
1.717763728690696e+18,-0.9520502014100002,-0.0963172073375,9.7388155288
1.717763728890696e+18,-0.9704319763099999,-0.12907658386299997,9.7493012238
1.717763729090696e+18,-0.9886565780400002,-0.126928550711,9.7463673248
1.717763729290696e+18,-1.0150392150849998,-0.14157559204499998,9.76709921275
1.717763729490696e+18,-0.9952945600238097,-0.12120509557142857,9.737365330238095
1.717763729690696e+18,-0.978208305355,-0.081999481204,9.756598548900001
1.717763729890696e+18,-0.96657000733,-0.04881349182144,9.7378799743
1.717763730090696e+18,-0.94911630249,-0.006908134461549998,9.735163124000001
1.717763730290696e+18,-0.9324484634599999,0.016810043334499997,9.67556455995
1.717763730490696e+18,-0.92765093994,-0.003659889220749999,9.736832153249999
1.717763730690696e+18,-0.9703571319550001,-0.014093193054365002,9.7434708481
1.717763730890696e+18,-0.9396602521714286,-0.017841469901095235,9.73499169490476
1.717763731090696e+18,-0.9534797287050001,-0.0465756454477,9.75173366545
1.717763731290696e+18,-0.9396484909000001,-0.0511710891725,9.7184503785
1.717763731490696e+18,-0.98153139492,-0.08585396576,9.7337485656
1.717763731690696e+18,-0.958726318365,-0.08958869933339002,9.728943557800001
1.717763731890696e+18,-0.966884353635,-0.11692185974399998,9.755049270699999
1.717763732090696e+18,-0.9765766982950002,-0.153356094355,9.784874748150001
1.717763732290696e+18,-0.9877808990549998,-0.0981883163467,9.757152397199999
1.717763732490696e+18,-0.9493757629476192,-0.07500117710715715,9.746104300285715
1.717763732690696e+18,-0.9254804534849999,-0.031284942627130004,9.72951237495
1.717763732890696e+18,-0.93350376893,0.007955955505820001,9.725306121900001
1.717763733090696e+18,-0.9106088790949999,0.014437477113449998,9.67955376435
1.717763733290696e+18,-0.9232575759899999,0.008794212341749997,9.722177627499999
1.717763733490696e+18,-0.9333166580099999,-0.03909869384727,9.75057357785
1.717763733690696e+18,-0.9458156661949999,-0.0475635910032,9.75630665585
1.717763733890696e+18,-0.9123955208857142,-0.08443156651380954,9.742483259
1.717763734090696e+18,-0.9357041931100001,-0.09206604766899999,9.72807536325
1.717763734290696e+18,-0.9077423400900001,-0.10792556762800001,9.790405746400001
1.717763734490696e+18,-0.97975009923,-0.1070349197365,9.755408523499998
1.717763734690696e+18,-0.9106313323849999,-0.07253166961799999,9.7696139831
1.717763734890696e+18,-0.9192084960899999,-0.033754806518500005,9.7253510284
1.717763735090696e+18,-0.9074504471000001,0.020604652404825,9.745184783800001
1.717763735290696e+18,-0.8857081604100001,0.005373825072940002,9.69875882725
1.717763735490696e+18,-0.8877895464190476,0.019594966344128575,9.696935119619047
1.717763735690696e+18,-0.90641759491,-0.010508148194055,9.7576763077
1.717763735890696e+18,-0.9235719223200001,-0.04247417449863,9.739519065900001
1.717763736090696e+18,-0.9234746246349997,-0.07714956665300002,9.755730354299999
1.717763736290696e+18,-0.9217906265349999,-0.085307601933,9.72710238645
1.717763736490696e+18,-0.9359661483749999,-0.126509422303,9.751015159649999
1.717763736690696e+18,-0.9756635971149997,-0.1625020752005,9.78677579495
1.717763736890696e+18,-0.9521129281190477,-0.09924362183190477,9.767823420952382
1.717763737090696e+18,-0.930532447815,-0.045048820495,9.7453269881
1.717763737290696e+18,-0.8458909607099999,-0.006631210326899999,9.75428585825
1.717763737490696e+18,-0.8713455276549998,0.01874102783255,9.696842811549999
1.717763737690696e+18,-0.8560473403949999,0.024983047485165,9.71332353985
1.717763737890696e+18,-0.8903110885649997,-0.0076715469359,9.720830429100001
1.717763738090696e+18,-0.855732994085,-0.029518615722500002,9.7523024827
1.717763738290696e+18,-0.8780216445900001,-0.0494347000135,9.745618881199999
1.717763738490696e+18,-0.9202363586476191,-0.07467328752857144,9.71819091795238
1.717763738690696e+18,-0.855890167235,-0.127280319212,9.800262748650002
1.717763738890696e+18,-0.8841738510100001,-0.12769944763824997,9.785346267649999
1.717763739090696e+18,-0.8795260162300002,-0.076940002443,9.755206443799999
1.717763739290696e+18,-0.859235710145,-0.016862434388174998,9.7429095154
1.717763739490696e+18,-0.8502094802850001,0.014377601625000003,9.74463093575
1.717763739690696e+18,-0.80717397309,0.0225206680295,9.684553367700001
1.717763739890696e+18,-0.8356194632380952,-0.006529279436895237,9.726174316476191
1.717763740090696e+18,-0.8241411895749999,-0.03403921508739,9.753522445649999
1.717763740290696e+18,-0.896837516785,-0.049359855647840005,9.727042511
1.717763740490696e+18,-0.867296447755,-0.06759942627044999,9.77093124395
1.717763740690696e+18,-0.8769962768549998,-0.112274024976,9.7514567413
1.717763740890696e+18,-0.88908364105,-0.11660751342849998,9.779194061350001
1.717763741090696e+18,-0.8831709365849999,-0.082762893676,9.77382772065
1.717763741290696e+18,-0.8255404227047618,-0.044728415352666674,9.753624376523808
1.717763741490696e+18,-0.79686790465,0.00101039886415,9.76692707065
1.717763741690696e+18,-0.788739807125,0.028148963930200006,9.692935935999998
1.717763741890696e+18,-0.7483986969,0.034046699523000004,9.7135780105
1.717763742090696e+18,-0.799831741335,-0.007304809570525,9.773281356850003
1.717763742290696e+18,-0.77017840576,-0.012805870056859996,9.8477065889
1.717763742490696e+18,-0.7645800476099999,0.03140469360205,9.514753967199999
1.717763742690696e+18,-0.8676631851249998,-0.057128700264350005,9.872674667750001
1.717763742890696e+18,-0.8051542445619049,-0.12380682809285715,9.765449785523812
1.717763743090696e+18,-0.99054265595,-0.1062864761375,9.79545774095
1.717763743290696e+18,-0.796246696465,-0.092889335633,9.78089302825
1.717763743490696e+18,-0.800318229675,-0.00853225708022,9.762316657949999
1.717763743690696e+18,-0.7234680404599999,0.10959459685550002,9.705172988849998
1.717763743890696e+18,-0.7117623824999999,0.0879196701055,9.700315589999999
1.717763744090696e+18,-0.752051101685,0.114324760453,9.740888717599999
1.717763744290696e+18,-0.7480658176904762,0.07488000052,9.746182708809524
1.717763744490696e+18,-0.76590479278,0.05272785187249999,9.750536155750002
1.717763744690696e+18,-0.7520810394199999,0.04317771148625,9.7683266602
1.717763744890696e+18,-0.775312728885,0.014564712524099997,9.7465544358
1.717763745090696e+18,-0.79555812835,0.014587165831650003,9.770669288599999
1.717763745290696e+18,-0.7719746704149999,-0.020933967590750002,9.7597045899
1.717763745490696e+18,-0.786075347905,-0.020567230224549995,9.743732803250001
1.717763745690696e+18,-0.7795114975,-0.02923420715424,9.7536272278
1.717763745890696e+18,-0.8037500218142858,-0.04407263619438096,9.74341703147619
1.717763746090696e+18,-0.8030425643899999,-0.04552033996595,9.7620996094
1.717763746290696e+18,-0.8073685684199999,-0.0555120620735,9.76415034485
1.717763746490696e+18,-0.81529458618,-0.05356610870730001,9.7677204208
1.717763746690696e+18,-0.81073656464,-0.05572911071918999,9.7731915436
1.717763746890696e+18,-0.797653770445,-0.011877799987415,9.744855468750002
1.717763747090696e+18,-0.7872504043599999,0.006429130555100001,9.754211013799999
1.717763747290696e+18,-0.7784668840523811,0.02968826293850952,9.727799508285713
1.717763747490696e+18,-0.75473052979,0.048985633849,9.7124403763
1.717763747690696e+18,-0.7816146240149999,0.006833290099689998,9.756800628650002
1.717763747890696e+18,-0.8070392532299999,0.01195264434865,9.7496230546
1.717763748090696e+18,-0.781188011165,-0.04752616882564499,9.749061721750001
1.717763748290696e+18,-0.80293029784,-0.05388045501500001,9.7569503174
1.717763748490696e+18,-0.8089926910449998,-0.06944059753349999,9.74862762445
1.717763748690696e+18,-0.8177719345149999,-0.075061408996,9.7644946288
1.717763748890696e+18,-0.8170937020428573,-0.10869539532952381,9.782200666095239
1.717763749090696e+18,-0.823737030025,-0.09225315856899999,9.768655975349999
1.717763749290696e+18,-0.773082366935,-0.04652325439600001,9.760924552899999
1.717763749490696e+18,-0.7804096298000001,-0.017476158141950002,9.76046051785
1.717763749690696e+18,-0.7559504928649999,0.03789369964671,9.760729957550002
1.717763749890696e+18,-0.7531288604700002,0.053289184570500005,9.692464416499998
1.717763750090696e+18,-0.745711784365,0.059613533019499995,9.73728870405
1.717763750290696e+18,-0.7524851989666668,0.009964991978123809,9.751927904380953
1.717763750490696e+18,-0.7885152740550001,-0.00010478210347500023,9.748283340400002
1.717763750690696e+18,-0.768591705315,-0.029428802489599996,9.75024426275
1.717763750890696e+18,-0.79558058167,-0.046141548155225,9.791872696000002
1.717763751090696e+18,-0.7892786865150001,-0.0549507293714,9.7332920151
1.717763751290696e+18,-0.8086858291700001,-0.08019573211749999,9.73521551505
1.717763751490696e+18,-0.8177869033750002,-0.1134939880335,9.80637753295
1.717763751690696e+18,-0.8167087881857142,-0.057216731477619055,9.754044930714286
1.717763751890696e+18,-0.7709867248599999,-0.017281562805900003,9.7638659363
1.717763752090696e+18,-0.7697443084650001,0.00577798461935,9.7558650742
1.717763752290696e+18,-0.7525450744600001,0.03591780853139,9.75652370445
1.717763752490696e+18,-0.7175179138149999,0.046463378907500005,9.69531598665
1.717763752690696e+18,-0.74190220641,0.028493247986279994,9.713899841300002
1.717763752890696e+18,-0.7623272323649999,-0.0015642471305499978,9.762458862249998
1.717763753090696e+18,-0.76906322479,-0.06685098266464999,9.77753251645
1.717763753290696e+18,-0.7856448146238095,-0.06574898856190477,9.755049983333333
1.717763753490696e+18,-0.7684495010450001,-0.1145043869065,9.766942039549999
1.717763753690696e+18,-0.80412032318,-0.107394172669,9.7583798446
1.717763753890696e+18,-0.77927947998,-0.12249028015299998,9.775601532000001
1.717763754090696e+18,-0.7875348129249999,-0.0920735321105,9.77493541735
1.717763754290696e+18,-0.79160634613,-0.044801834105,9.752444686900002
1.717763754490696e+18,-0.78938346863,-0.02344873809785,9.758162795950001
1.717763754690696e+18,-0.7639114379857143,0.007577100481333333,9.75631877357143
1.717763754890696e+18,-0.74015084839,0.031082862854399994,9.68179161065
1.717763755090696e+18,-0.7684495010349999,0.004775070190594999,9.76788507835
1.717763755290696e+18,-0.7616536331149999,-0.03056643676507,9.751965683
1.717763755490696e+18,-0.7767497406,-0.03498225403125,9.7507082977
1.717763755690696e+18,-0.7733967132499999,-0.07334747314550001,9.757721214350001
1.717763755890696e+18,-0.8168064422650001,-0.08115373993299999,9.759083381649999
1.717763756090696e+18,-0.773202117915,-0.118164276124,9.7675482788
1.717763756290696e+18,-0.8005138942190477,-0.11958703177190474,9.781566271095238
1.717763756490696e+18,-0.7887996826199999,-0.08088430022950001,9.769134979250001
1.717763756690696e+18,-0.77863581848,-0.07054080963245,9.7644946289
1.717763756890696e+18,-0.7451803894000001,-0.010156379700745,9.7594201812
1.717763757090696e+18,-0.767132240295,0.012311897278425,9.734586822399999
1.717763757290696e+18,-0.7299196243350001,0.040026763916600004,9.7024187164
1.717763757490696e+18,-0.739806564325,-0.006451583862354997,9.71857012935
1.717763757690696e+18,-0.749156406947619,-0.03226861136328572,9.777032841333334
1.717763757890696e+18,-0.77621834564,-0.0549432449335,9.756306656000001
1.717763758090696e+18,-0.7885152740399999,-0.07491172027450001,9.77078155525
1.717763758290696e+18,-0.7656503219599999,-0.13602214050900002,9.77033997335
1.717763758490696e+18,-0.8119490432700001,-0.11317964172999997,9.746255058400001
1.717763758690696e+18,-0.80444963837,-0.12817845153949997,9.77869260415
1.717763758890696e+18,-0.814284187315,-0.120506904612,9.768775726300001
1.717763759090696e+18,-0.804127807625,-0.06099066925099998,9.77202397165
1.717763759290696e+18,-0.7561204964809523,-0.04218370710161905,9.744543260904763
1.717763759490696e+18,-0.7723114700349999,0.0082478485108,9.75848462675
1.717763759690696e+18,-0.7293732604999998,-0.0032781829827500004,9.714274063099998
1.717763759890696e+18,-0.749805770875,0.016316070557699996,9.7200819854
1.717763760090696e+18,-0.7492968292250001,-0.018516494750645002,9.7464496537
1.717763760290696e+18,-0.77812687684,-0.05901477813795001,9.76844641105
1.717763760490696e+18,-0.775327697755,-0.06563101959350001,9.762571128850002
1.717763760690696e+18,-0.7821306937190476,-0.10342064994238097,9.743288726761904
1.717763760890696e+18,-0.815144897465,-0.1228121109005,9.77500277705
1.717763761090696e+18,-0.7996296615549999,-0.14946418762,9.7752048567
1.717763761290696e+18,-0.808079589835,-0.1376088409515,9.776305068949998
1.717763761490696e+18,-0.7884404296799999,-0.0905167694115,9.750985221799999
1.717763761690696e+18,-0.7938816146800001,-0.0680260391236,9.7621669694
1.717763761890696e+18,-0.76115966033,-0.003921844483065,9.759929122749998
1.717763762090696e+18,-0.7623871078499999,-0.0013546829222449994,9.70349647515
1.717763762290696e+18,-0.7634196036190475,0.009537309919142856,9.743131909904761
1.717763762490696e+18,-0.753592895505,-0.039495368958100005,9.732169349700001
1.717763762690696e+18,-0.77499838258,-0.06517446899499998,9.760213531399998
1.717763762890696e+18,-0.78344082642,-0.09194629668950001,9.763431839149998
1.717763763090696e+18,-0.7877144393749999,-0.125716072087,9.763177368200001
1.717763763290696e+18,-0.8055723037700002,-0.13921799468650004,9.7678252029
1.717763763490696e+18,-0.79991407012,-0.146096191395,9.75823764035
1.717763763690696e+18,-0.8058670479904761,-0.14008013043523806,9.772499411380952
1.717763763890696e+18,-0.7882757720900001,-0.10856174469479996,9.76126135245
1.717763764090696e+18,-0.78498262024,-0.07085515594450001,9.758492111200002
1.717763764290696e+18,-0.7623871078549999,-0.030289512634600002,9.76269836425
1.717763764490696e+18,-0.7727455673150001,-0.014908996580799999,9.739234657299999
1.717763764690696e+18,-0.7586673431400001,0.0029638366690500017,9.720980117749999
1.717763764890696e+18,-0.7583979034399999,-0.0288225631703,9.7338084411
1.717763765090696e+18,-0.7744823128857143,-0.03998827252961904,9.749661189428569
1.717763765290696e+18,-0.7955656127900002,-0.08617579650479999,9.7501843873
1.717763765490696e+18,-0.8033045196399999,-0.09401200102549999,9.769591529900001
1.717763765690696e+18,-0.78442128754,-0.10924282836749999,9.747475021299998
1.717763765890696e+18,-0.819672981265,-0.1126781845095,9.772824806250002
1.717763766090696e+18,-0.797189735405,-0.147188919066,9.7818360673
1.717763766290696e+18,-0.8190068664450001,-0.11172017668850001,9.7613885879
1.717763766490696e+18,-0.8111856308000001,-0.076505905154,9.757234726
1.717763766690696e+18,-0.7843760245142858,-0.05884192331285714,9.757644588000002
1.717763766890696e+18,-0.7608827361999999,-0.008143066405710001,9.756725784299999
1.717763767090696e+18,-0.76276881408,0.006077362059850001,9.67541487115
1.717763767290696e+18,-0.7805518341100001,-0.0190404052729,9.7393993149
1.717763767490696e+18,-0.76315800476,-0.0748219070435,9.773812751749997
1.717763767690696e+18,-0.818737426765,-0.08797954559450001,9.756568611149998
1.717763767890696e+18,-0.8055723037750001,-0.11445199584600001,9.75928546145
1.717763768090696e+18,-0.8232451956619048,-0.13412822178,9.763489576000001
1.717763768290696e+18,-0.8249195709149999,-0.15646213532400002,9.752272544899999
1.717763768490696e+18,-0.81953077697,-0.15291451263000003,9.7676904831
1.717763768690696e+18,-0.82432081604,-0.138858741765,9.771829376200001
1.717763768890696e+18,-0.8099806366,-0.10200537872349999,9.7613960725
1.717763769090696e+18,-0.78485538483,-0.040041732788,9.756770690949999
1.717763769290696e+18,-0.78535684204,-0.019324813842900003,9.7549669418
1.717763769490696e+18,-0.7746765518150001,0.018224601746095,9.710636627300001
1.717763769690696e+18,-0.7399968828476191,0.0013471984853809522,9.723080749476189
1.717763769890696e+18,-0.768681518555,-0.0343086547846,9.7472205505
1.717763770090696e+18,-0.7856262817449998,-0.04152365112379001,9.753604774449999
1.717763770290696e+18,-0.8019498367300001,-0.097844032291,9.7561644516
1.717763770490696e+18,-0.79165873717,-0.1159563674905,9.77753251665
1.717763770690696e+18,-0.807870025645,-0.14210698699500002,9.7582526093
1.717763770890696e+18,-0.81480809784,-0.14065500640499998,9.77769717405
1.717763771090696e+18,-0.7997868347190475,-0.1165291050514286,9.769177747380954
1.717763771290696e+18,-0.8122484207100001,-0.0693432998675,9.765766983
1.717763771490696e+18,-0.7746091919,-0.0280741195678,9.7558800431
1.717763771690696e+18,-0.766346374505,0.009879455564600003,9.7195805282
1.717763771890696e+18,-0.7382872238199999,0.015485298157425003,9.710165107849999
1.717763772090696e+18,-0.7648045806850001,-0.023336471556749998,9.73454191595
1.717763772290696e+18,-0.7736212463350001,-0.0604368209824,9.7654750901
1.717763772490696e+18,-0.8039930877699998,-0.10305319977029999,9.769898391800002
1.717763772690696e+18,-0.7903635733523809,-0.11752702984809525,9.760752410857142
1.717763772890696e+18,-0.7960820388800001,-0.12903916168250001,9.7687457887
1.717763773090696e+18,-0.824784851085,-0.132227531441,9.78258451085
1.717763773290696e+18,-0.7903339920100001,-0.08872050476949998,9.780960388150001
1.717763773490696e+18,-0.77840380096,-0.04502636718775001,9.745334472649999
1.717763773690696e+18,-0.768486923215,-0.011069480896499997,9.755453430100001
1.717763773890696e+18,-0.75488770295,0.00127983856145,9.69212013245
1.717763774090696e+18,-0.7597130257714286,0.009480285644761905,9.733202558238096
1.717763774290696e+18,-0.7614590377849999,-0.02494562530485,9.7590459594
1.717763774490696e+18,-0.7940462722799999,-0.0521290969865,9.746374809150002
1.717763774690696e+18,-0.77689194489,-0.088406158451,9.767458465599999
1.717763774890696e+18,-0.795400955205,-0.11228150940300001,9.7652355881
1.717763775090696e+18,-0.8103473739749999,-0.1344129867555,9.7577885742
1.717763775290696e+18,-0.8149428177000001,-0.138005516058,9.7880331803
1.717763775490696e+18,-0.8089677429190477,-0.0866626412547619,9.766155460904763
1.717763775690696e+18,-0.7674765243499999,-0.05009333038449999,9.7570775528
1.717763775890696e+18,-0.7849526825049999,-0.021315673828100002,9.761530792350001
1.717763776090696e+18,-0.76080789184,0.00865949249255,9.726458724950001
1.717763776290696e+18,-0.7638690261800001,0.0205821990978,9.69635632325
1.717763776490696e+18,-0.6744749221799999,-0.03533402252175,9.82027613065
1.717763776690696e+18,-0.9867555314200003,-0.2508259048406,9.7652430724
1.717763776890696e+18,-0.8012462997400001,-0.4736450500399999,9.72163126365
1.717763777090696e+18,-0.9514785330428572,-0.5202467128190477,9.782778037
1.717763777290696e+18,-0.8133112106299999,-0.5022879867550001,9.7421535874
1.717763777490696e+18,-0.858719284125,-0.743541297915,9.915867347550002
1.717763777690696e+18,-1.7419276428250001,-1.439414222815,10.45928230985
1.717763777890696e+18,-1.45040137476,-1.2863350524950001,10.956817680849998
1.717763778090696e+18,-0.9371112670849998,-0.1554816741925,9.06978927635
1.717763778290696e+18,-1.0233319701686496,0.4781581649635,9.38147861495
1.717763778490696e+18,-0.4590026419719047,3.2129044450952384,8.110334472714285
1.717763778690696e+18,-0.450712738062,4.49320632945,6.86623658755
1.717763778890696e+18,-0.7017706603975,2.311560584995,8.07835597225
1.717763779090696e+18,-0.090703880335,-1.160416900701,10.4584290854
1.717763779290696e+18,0.08314459991300001,-2.7160718994,12.1874760135
1.717763779490696e+18,-0.02841091923000002,-1.888113647485,10.80882792725
1.717763779690696e+18,-0.39401813508500005,0.01631607056,10.0679211496
1.717763779890696e+18,-0.31246772001650003,0.9267677765050001,9.387593399350001
1.717763780090696e+18,-0.39839296613190484,2.9284887477142854,8.373344682952379
1.717763780290696e+18,-0.362778099065,4.19261640935,7.220108207699999
1.717763780490696e+18,-0.387506675753,2.9712612306,8.2759675369
1.717763780690696e+18,-0.3421285400849999,1.1775188369835,9.09441307065
1.717763780890696e+18,-1.144654678342,-1.2459041290400001,10.14913476595
1.717763781090696e+18,-0.705902069109,-2.6599236602,12.002984664500001
1.717763781290696e+18,-0.9743613052550002,-2.0322938233,10.621589789149999
1.717763781490696e+18,-0.5374609157333333,-0.1534808349419048,10.276422926428571
1.717763781690696e+18,1.4722634125099998,0.8508306885114999,8.86293443285
1.717763781890696e+18,0.58050034333,2.0922740936,9.4744577638
1.717763782090696e+18,0.73577245333,3.2892524643500005,8.06370893105
1.717763782290696e+18,0.5926775207565,4.257865722650001,7.957153015200001
1.717763782490696e+18,0.7148310013025,3.1538590162999998,8.232460510300001
1.717763782690696e+18,0.18059195713259996,1.212680717495,9.28239216615
1.717763782890696e+18,-0.027131080633999993,-0.611643081622,9.85898563405
1.717763783090696e+18,-0.07562844411685715,-2.312227412476191,10.432441340333332
1.717763783290696e+18,-0.091549621581,-2.53829409035,11.7903218995
1.717763783490696e+18,-1.1843296738100002,-1.1112441558815003,10.39668997235
1.717763783690696e+18,-0.8683442688495001,0.370404739384,9.47058831
1.717763783890696e+18,-0.5337076492334999,1.8572927398499999,8.814113456700001
1.717763784090696e+18,0.0661998367245,3.24132213575,7.721034027100001
1.717763784290696e+18,-0.6554644546249999,3.5798581467,8.007837615949999
1.717763784490696e+18,-0.7971066938285715,1.6587791223571424,8.690784563238097
1.717763784690696e+18,-0.838960372865,-0.6624923400845,10.35843701915
1.717763784890696e+18,-0.863262336772,-1.360460907065,11.363521933999998
1.717763785090696e+18,-0.68564918512,-1.853872352635,10.957169449399998
1.717763785290696e+18,-0.7767422561649999,-0.9114321670811748,10.6377561722
1.717763785490696e+18,-0.6523808669110001,0.864878974885,9.18027452085
1.717763785690696e+18,0.03598516846049999,2.0014205246,9.1315283887
1.717763785890696e+18,0.24102129364499997,3.68580033875,7.62601911165
1.717763786090696e+18,-0.23176090787619047,3.40419950204762,8.292498517761905
1.717763786290696e+18,-0.25697811127244996,2.27387644965,8.54141802975
1.717763786490696e+18,-0.5206547927577501,0.2534529418596,9.6923147274
1.717763786690696e+18,-1.087892715515,-1.0908490676749998,10.251634117699998
1.717763786890696e+18,-0.7431446228859999,-1.24984842682,10.889502663
1.717763787090696e+18,0.23687491607750003,-1.528411651585,9.87337072035
1.717763787290696e+18,-1.106109832745,-0.47687832641499994,9.663754119950001
1.717763787490696e+18,-1.8428249686666665,0.10453262329242859,9.801089957857144
1.717763787690696e+18,-0.52961366275,-0.16095279693300002,9.87075865195
1.717763787890696e+18,-1.7038393478,0.44743455506499996,9.68861741645
1.717763788090696e+18,-1.2594659271750002,0.251439628615,9.699821617249999
1.717763788290696e+18,-0.593904968255,0.29810508729,9.755116630549999
1.717763788490696e+18,-0.94402688611,0.37872743225,9.643231796350001
1.717763788690696e+18,-0.898528999335,0.3268752594,9.6790373383
1.717763788890696e+18,-0.9236435590428572,0.25969567435238095,9.764950823000001
1.717763789090696e+18,-0.94151959994,0.2193089447,9.7692996368
1.717763789290696e+18,-0.8674012298599999,0.20613633728999997,9.745588943549999
1.717763789490696e+18,-0.8844208374000001,0.17909506988999999,9.7535374145
1.717763789690696e+18,-0.8890986099300001,0.11855346679550001,9.7688879928
1.717763789890696e+18,-0.9226737899749999,0.12787907411000002,9.745970649699998
1.717763790090696e+18,-0.9123003616450001,0.12354558563100002,9.776634384100001
1.717763790290696e+18,-0.88962252044,0.23016137696,9.764958664049999
1.717763790490696e+18,-0.8659207371285714,0.28527106149047615,9.752291434047617
1.717763790690696e+18,-0.8254958724849999,0.29193791199,9.738852950950001
1.717763790890696e+18,-0.829103370665,0.350518592825,9.70516550445
1.717763791090696e+18,-0.8412206726099999,0.35493441010000004,9.701221206649999
1.717763791290696e+18,-0.8209079132099999,0.335691925045,9.735941505449999
1.717763791490696e+18,-0.8389977951049999,0.298060180665,9.747482505850002
1.717763791690696e+18,-0.8475824432350001,0.25988955688500004,9.73486374665
1.717763791890696e+18,-0.8329250662666665,0.25969567435238095,9.736738063238096
1.717763792090696e+18,-0.843795318615,0.19493962097999998,9.76099191295
1.717763792290696e+18,-0.8741072845400002,0.1518891449,9.76200231175
1.717763792490696e+18,-0.8795110473650001,0.15707585908,9.804356735400003
1.717763792690696e+18,-0.8526568908649999,0.21021535491999996,9.7664705201
1.717763792890696e+18,-0.8209677887050001,0.27103388214500007,9.747909118699999
1.717763793090696e+18,-0.85249971771,0.320034484865,9.742011383100001
1.717763793290696e+18,-0.7860079879749999,0.343625427255,9.729018402200001
1.717763793490696e+18,-0.8003998456571428,0.3533152771095238,9.691239820142856
1.717763793690696e+18,-0.8165145492499999,0.34767450715000003,9.75450290685
1.717763793890696e+18,-0.82426094055,0.283787361145,9.7450425797
1.717763794090696e+18,-0.8105344848600001,0.2975287856950001,9.7161751099
1.717763794290696e+18,-0.8556731185850002,0.23183789062500004,9.78719492355
1.717763794490696e+18,-0.84501528168,0.181804435735,9.720770553600001
1.717763794690696e+18,-0.8376805343599999,0.16969461823549997,9.7866635284
1.717763794890696e+18,-0.8488205827857145,0.17681801930952382,9.766825496142857
1.717763795090696e+18,-0.8245453491200001,0.218987113955,9.776140411550001
1.717763795290696e+18,-0.8242010650500001,0.271378166205,9.762084640500001
1.717763795490696e+18,-0.7707846450850001,0.291922943125,9.75100019075
1.717763795690696e+18,-0.7985369339,0.34043705751000003,9.66821484375
1.717763795890696e+18,-0.7741451568599999,0.34326617432000006,9.745192268450001
1.717763796090696e+18,-0.798462089535,0.30895003508999996,9.751718696649998
1.717763796290696e+18,-0.7598947906500001,0.36926710508499994,9.91774594115
1.717763796490696e+18,-0.7779536656142857,0.4271617126461905,9.748192814333333
1.717763796690696e+18,-1.059526702895,0.5381833419950001,9.362752556650001
1.717763796890696e+18,-0.8451874236649999,0.299459770205,9.933852447549999
1.717763797090696e+18,-0.744806167585,0.30416748047,9.8176715464
1.717763797290696e+18,-0.8854237518050001,0.23495890045499998,9.60286074825
1.717763797490696e+18,-0.8674685897949999,0.14118640136650001,9.9124394757
1.717763797690696e+18,-1.1528351669499999,0.3285068664455,9.701206237750002
1.717763797890696e+18,-0.9430745805999999,0.4315454537714285,9.365388858857143
1.717763798090696e+18,-0.75988730621,0.3259846114985,9.969298736499999
1.717763798290696e+18,-0.817906654365,0.20871098328700005,9.818098160300002
1.717763798490696e+18,-0.778718147285,0.14385086059965,9.74556649015
1.717763798690696e+18,-0.9754315795899998,0.13777349854299997,9.74638977815
1.717763798890696e+18,-1.0440339203450002,0.13306578826354998,9.7964382019
1.717763799090696e+18,-0.905003036485,0.1030831375095,9.7161676254
1.717763799290696e+18,-0.9495503997750001,0.12112811280200002,9.72602462755
1.717763799490696e+18,-0.9077409144809524,0.1176196943147619,9.726103036000001
1.717763799690696e+18,-1.0079963608000004,0.10713221739599998,9.8089446946
1.717763799890696e+18,-0.839858505255,0.18262772369600003,9.7738726272
1.717763800090696e+18,-1.0064171447999999,0.21954096221999997,9.722297378499999
1.717763800290696e+18,-0.8935368804899998,0.341170532205,9.74293196875
1.717763800490696e+18,-0.9435029753949999,0.28194618988000003,9.682293067599998
1.717763800690696e+18,-0.928751152055,0.320835319525,9.580452346949999
1.717763800890696e+18,-0.8711669703571429,0.21956484113523808,9.864009116285715
1.717763801090696e+18,-0.9557250595,0.113740974431415,9.73909993745
1.717763801290696e+18,-0.94038945014,0.152158584592,9.7509627685
1.717763801490696e+18,-0.829021041865,0.101698516847,9.752137825000002
1.717763801690696e+18,-0.8361986159799999,0.12105326842695001,9.732281616349999
1.717763801890696e+18,-0.79391155242,0.10553054809199999,9.841621742200001
1.717763802090696e+18,-0.78748990632,0.204497245795,9.762473831149999
1.717763802290696e+18,-0.9185470145285715,0.40156494141428567,9.651672101714286
1.717763802490696e+18,-0.845060188285,0.29525351716000003,9.7221851119
1.717763802690696e+18,-0.876562179575,0.357756042488,9.6911845775
1.717763802890696e+18,-0.700752777055,0.417743797298,9.8376475069
1.717763803090696e+18,-0.854610328675,0.25913362884,9.696461105400001
1.717763803290696e+18,-0.7736511841,0.21299956511999998,9.7388903737
1.717763803490696e+18,-0.8952433318750002,0.219698135376,9.75993660735
1.717763803690696e+18,-0.79968953705,0.17127383422750003,9.765445152249999
1.717763803890696e+18,-0.8904768153666667,0.12049942016638096,9.83397870738095
1.717763804090696e+18,-0.859669807435,0.2661540298499999,9.73389825435
1.717763804290696e+18,-0.7874524841399999,0.30337413025500004,9.743994758800001
1.717763804490696e+18,-0.8071215820300001,0.34182916260500007,9.731690345899999
1.717763804690696e+18,-0.795812599185,0.34956058502000004,9.669457260050002
1.717763804890696e+18,-0.835764518745,0.35931280518500003,9.762885475249998
1.717763805090696e+18,-0.785431686405,0.31064151764000003,9.74073902885
1.717763805290696e+18,-0.804591129852381,0.3316389247285714,9.752747628380954
1.717763805490696e+18,-0.8530610504049999,0.30101653289999997,9.746307449400001
1.717763805690696e+18,-0.78546910858,0.263452148435,9.7704821777
1.717763805890696e+18,-0.8328455886750001,0.29777577209,9.7385685425
1.717763806090696e+18,-0.8221129074050001,0.2763777694599999,9.748260887050002
1.717763806290696e+18,-0.8483234023949999,0.27744804383000005,9.729093246450002
1.717763806490696e+18,-0.76726696015,0.256102432255,9.754510391299998
1.717763806690696e+18,-0.8542959823650002,0.19654877470899998,9.7000012436
1.717763806890696e+18,-0.8745955549000002,0.19288460868047622,9.775279344809523
1.717763807090696e+18,-0.8587641906749999,0.13133688353899997,9.77110338595
1.717763807290696e+18,-0.87948859405,0.10600955199949999,9.8123875351
1.717763807490696e+18,-0.8780216445899999,0.21676423645000004,9.759008537300002
1.717763807690696e+18,-0.80494361115,0.26176066589,9.7523997803
1.717763807890696e+18,-0.8311466216950001,0.2975287857,9.7028453293
1.717763808090696e+18,-0.799749412545,0.34073643494,9.648500839250001
1.717763808290696e+18,-0.8455844552190477,0.2817711966428571,9.813328792095238
1.717763808490696e+18,-0.8332123260450001,0.3357293472299999,9.75417359155
1.717763808690696e+18,-0.8038359146099999,0.40281983185000003,9.722491974650001
1.717763808890696e+18,-0.923497077975,0.317624496465,9.8314728468
1.717763809090696e+18,-0.800295776365,0.32446527098145,9.584486457649998
1.717763809290696e+18,-0.8338260498099999,0.22740710449300003,9.737176438
1.717763809490696e+18,-0.805744445795,0.2013986892725,9.884866814350001
1.717763809690696e+18,-0.9607845382649998,0.12631482696899998,9.70991812155
1.717763809890696e+18,-0.9085107421761907,0.17750231061428573,9.812872597809523
1.717763810090696e+18,-0.7784337386999999,0.26112448882,9.690024490400003
1.717763810290696e+18,-0.792167678835,0.29270132447499997,9.6688435364
1.717763810490696e+18,-0.864998725895,0.23317012024000006,9.74493031315
1.717763810690696e+18,-0.9245448989849999,0.2255509643599999,9.781836066599999
1.717763810890696e+18,-0.863352149965,0.21519998931499998,9.7213842773
1.717763811090696e+18,-0.873628280645,0.11701167297449996,9.750191871599998
1.717763811290696e+18,-0.8751871817476191,0.09394749232809524,9.804703870428572
1.717763811490696e+18,-0.895692398065,0.14052028655499998,9.776409851150001
1.717763811690696e+18,-0.8811351699850001,0.19779119111,9.745446739250001
1.717763811890696e+18,-0.8037910079999999,0.22626198577999998,9.651082969600001
1.717763812090696e+18,-0.8448730773850001,0.23689736938499997,9.7469960174
1.717763812290696e+18,-0.882025817865,0.206248603815,9.771567420950001
1.717763812490696e+18,-0.853068534855,0.2073862381,9.750049667350002
1.717763812690696e+18,-0.8298528834761906,0.18226383754761905,9.74636090957143
1.717763812890696e+18,-0.85902614595,0.19761904907999997,9.747789367650002
1.717763813090696e+18,-0.8640706558250001,0.1830842742905,9.745109939499997
1.717763813290696e+18,-0.8370293884200001,0.195253967285,9.7445635758
1.717763813490696e+18,-0.8565862197899999,0.175113349915,9.741951507500001
1.717763813690696e+18,-0.875072776795,0.15713573455000002,9.739197235050002
1.717763813890696e+18,-0.8710461502000001,0.11555220795059999,9.7907350615
1.717763814090696e+18,-0.85699786377,0.17366885376000002,9.77554914095
1.717763814290696e+18,-0.8587142944428572,0.21799667358095234,9.74654623847619
1.717763814490696e+18,-0.8503816223200001,0.26769582365999994,9.750925346399999
1.717763814690696e+18,-0.789173904415,0.26829457855000005,9.6667928009
1.717763814890696e+18,-0.82628173828,0.26682014466000004,9.7440546341
1.717763815090696e+18,-0.8521554336499999,0.28489505767,9.755520790099999
1.717763815290696e+18,-0.84877246857,0.27539730835,9.7513369904
1.717763815490696e+18,-0.8239615631099998,0.2778147812,9.77339362325
1.717763815690696e+18,-0.7571469334095239,0.32914411272190475,9.591354675809523
1.717763815890696e+18,-0.9542356567400001,0.35854939270499997,9.89442443895
1.717763816090696e+18,-0.5358107757499999,0.16472495269350002,9.638898308349997
1.717763816290696e+18,-0.75223072815,0.1911001052885,9.8698530358
1.717763816490696e+18,-0.87746779634,0.261423866275,9.925963851699999
1.717763816690696e+18,-0.6915918273950001,0.322272331245,9.685631126499999
1.717763816890696e+18,-0.720848487865,0.25786875916,9.612949768050001
1.717763817090696e+18,-0.60415116118,0.28763436126,9.693916397150002
1.717763817290696e+18,-0.5134964643190475,0.28334649222380953,9.778971666809523
1.717763817490696e+18,-0.7275320892,0.308770408625,9.871986099299999
1.717763817690696e+18,-0.8119565277099999,0.3517984314,9.709716041550001
1.717763817890696e+18,-0.8541313247649999,0.23694227601,9.47262407685
1.717763818090696e+18,-1.038008949245,0.18483563231850003,9.97322806505
1.717763818290696e+18,-0.9563612365650002,0.11862831114430002,9.812387535100001
1.717763818490696e+18,-0.84951342774,0.23085742950499996,9.734197631849998
1.717763818690696e+18,-0.7747959463904761,0.29851494924285715,9.702074432285714
1.717763818890696e+18,-0.78856018067,0.28438611602,9.688280616800004
1.717763819090696e+18,-0.8577388229349999,0.188181175225,9.78295873265
1.717763819290696e+18,-0.8816590805150002,0.178675941475,9.74017769625
1.717763819490696e+18,-0.821633903505,0.178907958985,9.75694283295
1.717763819690696e+18,-0.8498801651100001,0.14242133330450002,9.747811820950002
1.717763819890696e+18,-0.8536373519949999,0.1360745315495,9.75686798865
1.717763820090696e+18,-0.8396190032999999,0.12156221008499998,9.7486051712
1.717763820290696e+18,-0.8616510445666666,0.10632888793828571,9.776911664619048
1.717763820490696e+18,-0.85709516144,0.1405352554315,9.760355735749998
1.717763820690696e+18,-0.838922950745,0.1800530777,9.744930313200001
1.717763820890696e+18,-0.8552539901699998,0.2264116745,9.746052978500002
1.717763821090696e+18,-0.8071365508999999,0.23753354644,9.75110497285
1.717763821290696e+18,-0.801702850345,0.284648071295,9.690787902749998
1.717763821490696e+18,-0.8089328155450002,0.280980697645,9.724138549749998
1.717763821690696e+18,-0.8194174412238094,0.24710043770476187,9.735077231190475
1.717763821890696e+18,-0.8223673782300001,0.21477337646500003,9.7598467942
1.717763822090696e+18,-0.836400695805,0.18628012848,9.74412199395
1.717763822290696e+18,-0.8389454040600001,0.1670002212515,9.752309967
1.717763822490696e+18,-0.8759634246699999,0.12262500001199998,9.7707665862
1.717763822690696e+18,-1.0117984543300003,0.20906275176199998,9.8315027848
1.717763822890696e+18,-0.30874795532,-0.10845696258435,9.765654716349998
1.717763823090696e+18,-0.47297145081499997,0.0873283996641,9.75988421625
1.717763823290696e+18,-0.2438500540657143,0.11351394653671429,9.777196786190476
1.717763823490696e+18,-0.408275985715,0.19678079224,9.69546567535
1.717763823690696e+18,-0.31258747101000006,0.18892213440500003,9.658282997099999
1.717763823890696e+18,-0.38303846740999997,-0.19089802550950002,9.798436546500001
1.717763824090696e+18,-0.52983071136,-0.13129946136625,9.82306782505
1.717763824290696e+18,-0.54385654449,-0.3000734939665,9.77295952615
1.717763824490696e+18,-0.32120205687500003,-0.28714787293,9.78628182205
1.717763824690696e+18,-0.6489861406571429,-0.19076045445238096,9.758949018238095
1.717763824890696e+18,-0.39200482178000007,-0.22594015502999998,9.767907531750001
1.717763825090696e+18,-0.56019506835,-0.19431841278,9.75391163655
1.717763825290696e+18,-0.9944645005050001,-0.13081297302904998,9.74562636565
1.717763825490696e+18,-0.60835741425,-0.208097259515,9.73659265135
1.717763825690696e+18,-0.8321570205600001,-0.18804645539,9.734010520800002
1.717763825890696e+18,-0.80192738343,-0.23325993345999999,9.7787524795
1.717763826090696e+18,-0.9021596636095237,-0.24204666139047623,9.777595956095237
1.717763826290696e+18,-0.9210571517949999,-0.21683908081000003,9.79354172505
1.717763826490696e+18,-0.908879974345,-0.145557312005,9.709910636850001
1.717763826690696e+18,-0.9854532394749999,-0.1257310409565,9.749091659600001
1.717763826890696e+18,-0.9873093795600001,-0.04114194489,9.667698417699999
1.717763827090696e+18,-1.011469139075,-0.0504376144434,9.713600463999999
1.717763827290696e+18,-0.9697434081599999,-0.07700736236749998,9.722477005000002
1.717763827490696e+18,-0.9397008819549999,-0.057555313105549996,9.7533952102
1.717763827690696e+18,-0.9412783159333334,-0.08737544468238095,9.747708108142856
1.717763827890696e+18,-0.9715845795450001,-0.080622344973,9.74023008735
1.717763828090696e+18,-0.9035959625000001,-0.07132667541644,9.7314433594
1.717763828290696e+18,-1.04710253906,-0.0029937744179300016,9.735844207600001
1.717763828490696e+18,-0.736842727685,-0.13443544006600003,9.75808795165
1.717763828690696e+18,-1.175700119015,-0.059299186705499995,9.6928760605
1.717763828890696e+18,-0.895520256035,0.0028889923150000004,9.6717325288
1.717763829090696e+18,-1.0802464730857142,0.12563873290809524,9.73864837647619
1.717763829290696e+18,-1.072631950345,0.1762210464444,9.713600463999999
1.717763829490696e+18,-1.1036773910550002,0.167628913886,9.8107035369
1.717763829690696e+18,-1.20441041555,0.19457288360724997,9.74460848235
1.717763829890696e+18,-0.994621673535,0.23192770386,9.75041640465
1.717763830090696e+18,-0.8124879226800001,0.32281121061999996,9.740185180649998
1.717763830290696e+18,-0.76038127898,0.36314483642499995,9.665243522599997
1.717763830490696e+18,-0.7992404709149998,0.32412098693999997,9.7526243133
1.717763830690696e+18,-0.7536541966142858,0.3460518101190476,9.755114135857143
1.717763830890696e+18,-0.741760002145,0.32691268158500003,9.75311080185
1.717763831090696e+18,-0.747103889475,0.32711476135999995,9.75098522185
1.717763831290696e+18,-0.721581962585,0.297251861585,9.75535613255
1.717763831490696e+18,-0.71688173676,0.30733339689999994,9.745065033
1.717763831690696e+18,-0.6830969924950001,0.292349555965,9.7578334809
1.717763831890696e+18,-0.6988816680900001,0.273862998955,9.765864280650002
1.717763832090696e+18,-0.6924742780428571,0.288378884452381,9.75713136952381
1.717763832290696e+18,-0.691666671755,0.2839295654299999,9.73515563955
1.717763832490696e+18,-0.712106666565,0.269776496885,9.7301260987
1.717763832690696e+18,-0.70492160797,0.14679224395200002,9.773086761550001
1.717763832890696e+18,-0.717675086975,0.15719561005,9.8029945679
1.717763833090696e+18,-0.7040159912150001,0.20175794220499998,9.769516685500001
1.717763833290696e+18,-0.7036492538400001,0.228963867185,9.757040130650001
1.717763833490696e+18,-0.6713838501,0.28378736115000003,9.766410644550001
1.717763833690696e+18,-0.6684670584571428,0.31339115687619046,9.72991653447619
1.717763833890696e+18,-0.643055259705,0.321134696965,9.7031970978
1.717763834090696e+18,-0.6590569839499999,0.29436286926500005,9.7819932404
1.717763834290696e+18,-0.6566170577949999,0.30262568663999995,9.747198097299998
1.717763834490696e+18,-0.674519828805,0.292589057925,9.749540725649998
1.717763834690696e+18,-0.676600502015,0.28186386109,9.7594875411
1.717763834890696e+18,-0.67759593201,0.282470100405,9.761089210449999
1.717763835090696e+18,-0.6581955610047618,0.2877088492238095,9.751671295190478
1.717763835290696e+18,-0.698065864565,0.270390220655,9.756403953649999
1.717763835490696e+18,-0.6531367950350001,0.262771064755,9.735567283650001
1.717763835690696e+18,-0.71008586884,0.26038352967,9.78165644065
1.717763835890696e+18,-0.675163490315,0.2602263565,9.731301155100002
1.717763836090696e+18,-0.7102280731249999,0.23886577606499998,9.766912101700001
1.717763836290696e+18,-0.6572008438049999,0.28969258117,9.7368022157
1.717763836490696e+18,-0.75093592073,0.202820732115,9.732887855650002
1.717763836690696e+18,-0.7358269827666666,0.21485321046190475,9.816515023380953
1.717763836890696e+18,-0.7041656799249999,0.199692237865,9.76644058215
1.717763837090696e+18,-0.7162006530750001,0.26806256104,9.75440560905
1.717763837290696e+18,-0.6600374450650001,0.29498407745,9.755603118899998
1.717763837490696e+18,-0.661975914005,0.32393387604,9.731405937149999
1.717763837690696e+18,-0.624149574275,0.342218353285,9.708159278850001
1.717763837890696e+18,-0.66108526611,0.309137146005,9.7329327621
1.717763838090696e+18,-0.6688377162333333,0.2585979570714286,9.786848144333335
1.717763838290696e+18,-0.678651237495,0.25381967927,9.75973452755
1.717763838490696e+18,-0.6277570724499999,0.27925927735499995,9.72594229895
1.717763838690696e+18,-0.8051831131,0.34190400695150003,9.717484885349998
1.717763838890696e+18,-0.6906562729,0.182320861816,10.02403241655
1.717763839090696e+18,-0.6991511077949999,0.28951295469500005,9.6017006611
1.717763839290696e+18,-0.95618909456,0.349119003295,9.64287254335
1.717763839490696e+18,-0.67782046509,0.289632705685,9.76864100645
1.717763839690696e+18,-0.974302498995238,0.2423246547142857,9.728433903333334
1.717763839890696e+18,-1.0124870223600002,0.23188279723500008,9.77535454565
1.717763840090696e+18,-0.6870861969,0.22517674256499998,9.781095108150001
1.717763840290696e+18,-0.830787368775,0.27937902831,9.75988421635
1.717763840490696e+18,-0.60897862243,0.27537485504,9.72161629495
1.717763840690696e+18,-0.694256286625,0.29748387907499996,9.755954887500002
1.717763840890696e+18,-0.7025265884399999,0.27205924987999996,9.67495083625
1.717763841090696e+18,-0.8067366681809522,0.2314544023769524,9.773590000666665
1.717763841290696e+18,-0.7711438980149999,0.23103705596999996,9.770302550949998
1.717763841490696e+18,-0.5860837325999999,0.20110679626,9.7599366076
1.717763841690696e+18,-0.7252119140650001,0.189977439881,9.744339042750001
1.717763841890696e+18,-0.598448020945,0.17312997436179997,9.763207306149999
1.717763842090696e+18,-0.7054455184999999,0.15292199707274998,9.776776588499999
1.717763842290696e+18,-0.6046301651049999,0.15108831023840003,9.79291303265
1.717763842490696e+18,-0.7206300135999999,0.2341202872142857,9.76502210347619
1.717763842690696e+18,-0.6357130279700001,0.2405348053,9.7495182723
1.717763842890696e+18,-0.632988693235,0.27905719757,9.6962590256
1.717763843090696e+18,-0.658091491695,0.24324417113499996,9.74748250575
1.717763843290696e+18,-0.660815826425,0.22617965699,9.7593004303
1.717763843490696e+18,-0.6739584960899999,0.197768737805,9.7582451249
1.717763843690696e+18,-0.75740247344,0.22207070160499995,9.8049330368
1.717763843890696e+18,-0.54345238494,0.07658823395310001,9.8143634262
1.717763844090696e+18,-0.400431583952381,0.16092250279666662,9.74050879347619
1.717763844290696e+18,-0.5881045303249999,0.19664607239300003,9.792770828299998
1.717763844490696e+18,-0.790004676815,0.3614458694499999,9.735716972149998
1.717763844690696e+18,-0.5365292816199999,0.06431375885649997,9.6576019137
1.717763844890696e+18,-0.596344894415,0.07435787200399997,9.832573058999998
1.717763845090696e+18,-0.7251146163950001,-0.2524649963345,9.746127822750001
1.717763845290696e+18,-0.6136938171399999,-0.0762364654575,9.771784469650001
1.717763845490696e+18,-0.8564832196614286,-0.02318749564095238,9.749062434714286
1.717763845690696e+18,-0.6078784103849999,-0.50317863465,9.75276651775
1.717763845890696e+18,-0.86146607209,-0.1132245483515,9.752033042899999
1.717763846090696e+18,-0.8193511505150001,-0.24228616334435005,9.7248346024
1.717763846290696e+18,-0.8598269805600001,-0.35597474670999996,10.00173628225
1.717763846490696e+18,-0.676697799705,-0.37004548644750007,10.16043626425
1.717763846690696e+18,-1.764163902265,-1.2411964187289999,11.173537009499999
1.717763846890696e+18,-2.3748265228000003,-0.38763391112150003,9.31545840395
1.717763847090696e+18,-1.4064110673428571,0.7495199367004761,9.341018109761904
1.717763847290696e+18,-0.5180876312435,2.261826507635,8.629831672749999
1.717763847490696e+18,-0.6676042099606001,3.4150808028999995,7.810196113550001
1.717763847690696e+18,-0.8061785431084999,3.0020147781499995,9.203431365850001
1.717763847890696e+18,-0.551954704281,2.2438039854999996,8.2566876297
1.717763848090696e+18,-1.52214717864,1.0886336745775,9.27674141635
1.717763848290696e+18,-1.6472270736549999,-1.54892649073,10.62227835855
1.717763848490696e+18,-1.0020590645285714,-2.7942393494761903,11.401362175714285
1.717763848690696e+18,-1.0484871597249998,-1.4117218095100001,9.7606027221
1.717763848890696e+18,-1.00661922461845,-0.665066986165,10.310813552
1.717763849090696e+18,-1.12467871854,0.620946235668,9.2422980425
1.717763849290696e+18,-0.8645197220385,2.3545062788999997,8.398038688649999
1.717763849490696e+18,-0.7580087127749999,2.5767640914,9.023924652
1.717763849690696e+18,-0.751916381815,1.9592756651999994,9.350088890250001
1.717763849890696e+18,-0.7092625808699999,1.83405356605,8.970687858549999
1.717763850090696e+18,-0.6599561854857142,1.1120945303714287,8.850709141380952
1.717763850290696e+18,-0.985296066245,-1.1957359543385002,9.80913929015
1.717763850490696e+18,-1.11990364834,-2.23896903985,10.56335339355
1.717763850690696e+18,-1.18313216401,-3.1053074799999996,10.953734093000001
1.717763850890696e+18,-0.8930878143710002,-1.86941752625,10.013891005949999
1.717763851090696e+18,-0.717158660888,-0.6676865386899999,9.97018938425
1.717763851290696e+18,-0.76103990945,0.598822242779,9.1661064834
1.717763851490696e+18,-0.5943782697428571,2.284848632857143,8.528137076142858
1.717763851690696e+18,-0.322758819584,1.8413883133,9.487944717149999
1.717763851890696e+18,-0.282529975896,2.13653704835,9.089428436199999
1.717763852090696e+18,-0.25759183501949995,1.7909656677500003,8.971166862499997
1.717763852290696e+18,-0.28872708890499993,1.0915226669649998,8.95391523745
1.717763852490696e+18,-0.325722656276,-0.4689597930905,9.568582031450001
1.717763852690696e+18,-0.7586972809350001,-2.2780003738499994,10.85217778165
1.717763852890696e+18,-0.9648261336900001,-2.8952492981000004,11.478482873
1.717763853090696e+18,-0.4700297109904763,-0.9359750583761904,10.095926841190478
1.717763853290696e+18,-0.895363082843,-0.005119354288500003,9.693130531349999
1.717763853490696e+18,-0.28266469574815,1.3409489823149998,9.18680094885
1.717763853690696e+18,0.0033530273494999817,3.06624620825,8.3556393585
1.717763853890696e+18,-0.15087126159449998,2.82889228815,8.967866226149999
1.717763854090696e+18,-0.5060526581,2.80028677375,8.9828800049
1.717763854290696e+18,-0.15475568389700003,2.73372019965,8.674289222749998
1.717763854490696e+18,-1.1304492186657145,1.1842017255285715,9.08772341047619
1.717763854690696e+18,-0.6124214630095001,-0.138357284552,9.658178214100001
1.717763854890696e+18,-1.1443253631499999,-2.67120270545,10.9253082042
1.717763855090696e+18,0.09296417997000002,-2.5052053985,11.13012728155
1.717763855290696e+18,-0.66990941618729,-1.5009362870000003,10.21073167405
1.717763855490696e+18,-0.17971627807999996,0.23620131687000004,9.624251265500002
1.717763855690696e+18,0.053962783824825,1.2469369811950002,9.09213031715
1.717763855890696e+18,0.15063175960750003,3.0161004867500005,8.476004058800001
1.717763856090696e+18,-0.6968152509319048,3.2185284640476186,8.703757585809523
1.717763856290696e+18,-0.3673959960875,2.9743298491999997,8.273310562199999
1.717763856490696e+18,-0.6274427261505001,2.2964644775000003,8.896479675300002
1.717763856690696e+18,-0.67661547093,0.6426810379065,9.591050307849999
1.717763856890696e+18,-0.4035682754605,-0.315551307644,9.372961326650001
1.717763857090696e+18,-1.2012669525574997,-1.0999501419409998,12.393814430199999
1.717763857290696e+18,-0.42362656398199994,-1.65385079962,9.2191636507
1.717763857490696e+18,-1.4642194259047618,-1.0828268214714287,9.704305507285714
1.717763857690696e+18,-1.8754874039500002,0.03818559265799999,9.81651145935
1.717763857890696e+18,-1.5537838898499998,0.0034203872609999907,9.6882431946
1.717763858090696e+18,-1.005893234285,0.33105905914499995,9.6999114304
1.717763858290696e+18,-0.8977131958,0.270727020265,9.66271378335
1.717763858490696e+18,-0.8024438095049999,0.24540717315,9.7198799056
1.717763858690696e+18,-0.8812100143549999,0.2286345520075,9.769786125200001
1.717763858890696e+18,-0.7630346897666666,0.18728910173238097,9.77149435857143
1.717763859090696e+18,-0.80552739716,0.1285227355925,9.751112457150002
1.717763859290696e+18,-0.6727984085150001,0.14548995208755,9.8041097488
1.717763859490696e+18,-0.7896379394649999,0.13974190522290003,9.7854809876
1.717763859690696e+18,-0.721806495675,0.1814526672435,9.7532530057
1.717763859890696e+18,-0.67548532105,0.214234497065,9.7561345139
1.717763860090696e+18,-0.6420149230764707,0.23970447316176474,9.794678919
1.717763860290696e+18,,,
