Timestamps,Gyro_X,Gyro_Y,Gyro_Z
1.717763707299385e+18,-0.006966051272333333,-0.07259855401961905,-0.11647569778380952
1.717763707499385e+18,-0.028717685151791,0.04906195588305,0.04486824669979999
1.717763707699385e+18,-0.0295520783395,0.011755613574799999,-0.00405660863005
1.717763707899385e+18,-0.17813169984639998,0.05930090473685,0.0357255077453
1.717763708099385e+18,-0.555219100415,0.16473862156000002,0.0664196784938
1.717763708299385e+18,-0.507845833895,0.09877341496514999,0.0838949360945
1.717763708499385e+18,-0.628904519965,0.64771717116,0.041190417026500004
1.717763708699385e+18,9.11562101904771e-05,0.0678846700763143,0.0813878517452381
1.717763708899385e+18,-0.014602303425850005,0.20693340793875,0.30688731931069996
1.717763709099385e+18,0.616392152,-0.0010988807444550033,0.07205989138150001
1.717763709299385e+18,0.35192066356850005,-0.21797945425000004,0.029322685301000007
1.717763709499385e+18,0.60826620482815,-0.257060352715,0.00544076219625
1.717763709699385e+18,-0.41655956552499995,0.0037416026945000028,-0.07909279496405
1.717763709899385e+18,-0.72451533675,0.1462511139966,-0.1888767914855
1.717763710099385e+18,-0.8081648889142857,0.1281596871647619,-0.13202603835666665
1.717763710299385e+18,-0.1895931612951,0.1183095966795715,0.039639655546
1.717763710499385e+18,0.22518612979999997,0.10196785968865003,-0.0035066886912499956
1.717763710699385e+18,0.642162325965,-0.0460125962776,-0.0018594589068999974
1.717763710899385e+18,0.546045897915,-0.2527056437,0.040546156467
1.717763711099385e+18,0.828808346375,-0.30377569123000003,0.05150096598550001
1.717763711299385e+18,0.253451463015,-0.07888617589750001,0.014765143034150002
1.717763711499385e+18,-0.819743138565,0.11848994335150001,-0.07181420358955001
1.717763711699385e+18,-0.8568604077571427,0.005931255315238095,-0.12688922268280953
1.717763711899385e+18,-0.60041274727,0.12248673215349999,0.05149532479525
1.717763712099385e+18,-0.06481548566499999,0.11446965847304998,0.09271724851404882
1.717763712299385e+18,0.4308957520040001,-0.16747927670020002,-0.015565944097500003
1.717763712499385e+18,0.86285465357,0.077597991753,0.2910765533425
1.717763712699385e+18,0.7730509698399999,-0.12426026126850002,-0.010175098388250002
1.717763712899385e+18,0.26519510355250003,0.020287927286750003,-0.04981454811354
1.717763713099385e+18,-0.5445844318238096,0.06634998676428572,-0.09915747683638095
1.717763713299385e+18,-0.7856252193350001,0.112611992288,-0.0988254066565
1.717763713499385e+18,-0.6053051531250001,0.053445154053,-0.12187804095484997
1.717763713699385e+18,-0.2765241879924999,-0.0701685731762,-0.070151748778135
1.717763713899385e+18,0.41457569757085,-0.05652401663559999,0.0489797388524
1.717763714099385e+18,0.6482928484749999,0.06122194179645,0.10766333899427849
1.717763714299385e+18,0.78229750396,-0.15113191073930002,-0.0322637736121
1.717763714499385e+18,0.44103430063,-0.1296588360275,-0.027961438637949997
1.717763714699385e+18,-0.06196707119095239,-0.018097057739523817,0.03979985404723809
1.717763714899385e+18,-0.5022243335800001,0.0262936495608,-0.0013443487349579996
1.717763715099385e+18,-0.7286336839250002,0.07223307591988001,-0.10938331130399999
1.717763715299385e+18,-0.702246096725,-0.003575365227999998,-0.10575878100514999
1.717763715499385e+18,-0.334408562625,-0.0852955672964,-0.0016577084080500015
1.717763715699385e+18,-0.06514987351785,0.0083115283396985,0.05701508606250001
1.717763715899385e+18,0.499271041145,0.2024347805395,0.11978279081725
1.717763716099385e+18,0.5658956411428571,-0.04505183122523809,0.09020749832345715
1.717763716299385e+18,0.382597092555,-0.0749007444815,-0.016994582163850004
1.717763716499385e+18,0.47430159897500007,-0.09433324970979998,0.02613228894625
1.717763716699385e+18,0.35601299181,-0.05029976321549999,0.01515176473247
1.717763716899385e+18,-0.10891752644400002,0.024459156937949998,-0.033208284340250006
1.717763717099385e+18,-0.5298205167199999,0.16117294393499998,0.007572800154249999
1.717763717299385e+18,-0.8991787671949998,0.190420611955,-0.07753697739189999
1.717763717499385e+18,-0.5798233807,-0.060509904012,-0.13407522831540003
1.717763717699385e+18,0.03029425867142857,-0.07276701381880953,0.055177507122380946
1.717763717899385e+18,0.516675905129,-0.12157883766020001,0.0012430700455000026
1.717763718099385e+18,0.21143715330500004,0.20406131446499995,0.0522421386185
1.717763718299385e+18,0.16009641371205,0.13504714257999997,0.05490481127050001
1.717763718499385e+18,0.006166739098650001,0.022950537619350002,0.020722663227849998
1.717763718699385e+18,-0.00562575602671,-0.049120899383,-0.043393136747999994
1.717763718899385e+18,-0.020554786245850002,-0.04981727143825,-0.037998005806200004
1.717763719099385e+18,-0.011869224525085714,0.025449278432404764,0.010864466650114283
1.717763719299385e+18,0.0020226413853,0.023886614268999996,-0.0015977824047949999
1.717763719499385e+18,-0.01914217904565,-0.040844823698499996,-0.0053508787298449986
1.717763719699385e+18,-0.010875519802244998,-0.038608442434,-0.011300655524499999
1.717763719899385e+18,-5.6118232766999814e-05,-0.013587441552249998,-0.0576960343868
1.717763720099385e+18,0.010880347259765,-0.0459232734515,-0.008102447714374999
1.717763720299385e+18,0.017561089927716,-0.00923318003795,0.0092983914542
1.717763720499385e+18,0.025544969454761902,-0.0138578909071,0.0024774628912857142
1.717763720699385e+18,0.018365090130550005,-0.017901494307000002,0.0009126618558150003
1.717763720899385e+18,0.018806995685,-0.008568477025550001,0.004152208962485
1.717763721099385e+18,-0.0034097719409499996,-0.001963902625305,0.0016538324184
1.717763721299385e+18,-0.0086980256266,3.766259178000012e-05,0.0006064758345505
1.717763721499385e+18,-0.01587091484055,-0.0001069559017089999,-0.0024668027763
1.717763721699385e+18,-0.016924841307350003,0.003899743303415,0.0007857814664650002
1.717763721899385e+18,-0.017269423645264997,-0.00568175249503,-0.0046817205906100005
1.717763722099385e+18,-0.00733357159042857,-0.002952681532861905,-0.004200920285019048
1.717763722299385e+18,-0.01039185902613,-0.0008118968575999998,-0.00216366161466
1.717763722499385e+18,0.023044927814549997,-0.0085623954654,0.004418894311
1.717763722699385e+18,0.0252696176065,-0.00910754259675,0.0048288836958125
1.717763722899385e+18,0.01920891320255,-0.0027749096508,0.0028136900276
1.717763723099385e+18,0.014785412373099998,-0.0103370290247,0.0018746395711850001
1.717763723299385e+18,0.00100091875967,0.0012634596205499998,-0.003310161240995
1.717763723499385e+18,-0.012257994995,0.0002839321138095241,-0.006264417354699999
1.717763723699385e+18,-0.011806202091800002,-0.005412534787155,-0.0013128525052649997
1.717763723899385e+18,-0.004908471581110001,0.005747493554334999,-0.0030235155485005
1.717763724099385e+18,-0.0103561500522595,0.001649520290315,-0.002664492780095
1.717763724299385e+18,-0.011626430158555,-0.010225151118185,0.0015791007317274997
1.717763724499385e+18,-0.0025997185673,0.004100174515024999,-0.0056084816115
1.717763724699385e+18,0.011338706437750002,0.003601808088985,0.0028205202660149995
1.717763724899385e+18,0.015847797273345003,-0.013012856071150002,0.0017247869750025
1.717763725099385e+18,0.022514526067619046,-0.009944532088904761,0.005117690279476191
1.717763725299385e+18,0.016728420276,-0.004688730847585001,0.001197581086335
1.717763725499385e+18,0.0013732454737105002,-0.0039977269132950004,-0.0006074454867
1.717763725699385e+18,-0.007859269902149999,0.003045016038125,0.000554634176655
1.717763725899385e+18,-0.010198816098450001,5.395535964999865e-06,0.00494564254729
1.717763726099385e+18,-0.0191212449226,-0.0080942449856,0.005525400210059999
1.717763726299385e+18,-0.01565782707135,0.00013261177811499996,-0.0022605650300700003
1.717763726499385e+18,-0.009233133334761905,0.003132441868114286,0.004972042903809524
1.717763726699385e+18,-0.0092968957441585,0.0026785301511450003,0.00037324653231999986
1.717763726899385e+18,0.00561235989419,-0.00551386342855,-0.009137493930749998
1.717763727099385e+18,0.026891933102499998,-0.0033460279925499998,0.003016203671003999
1.717763727299385e+18,0.026606633327499997,-0.0039983749505500005,0.0020713019649950004
1.717763727499385e+18,0.019088220177250002,-0.006258725514124999,0.005110142950218499
1.717763727699385e+18,0.0183708080555,-0.006496729923075001,0.0028682542149249994
1.717763727899385e+18,0.0005696298437749998,0.00036404869754499996,-0.0009967683407685
1.717763728099385e+18,-0.01476692243157143,0.001573691466019048,3.0080239128571382e-05
1.717763728299385e+18,-0.01194510799765,-0.0006667991519099996,-0.0042672098848100005
1.717763728499385e+18,-0.014117456274899997,0.005098295363345,-0.0005954185849355
1.717763728699385e+18,-0.018739546091000002,0.00497203272563,-0.00464322128092
1.717763728899385e+18,-0.012899723107634,0.005854368361219999,-0.0015643246297199996
1.717763729099385e+18,-0.0022663085430684998,0.0107521163295,-0.0005324606259550001
1.717763729299385e+18,0.0044906685705,-0.001801648212135,0.00103762525834
1.717763729499385e+18,0.01566082016295238,-0.007123516496095238,0.002197245606838571
1.717763729699385e+18,0.019242410128000004,-0.00572909886255,0.00360780273334
1.717763729899385e+18,0.022404715605499996,-0.006447930797,0.0034940090612300004
1.717763730099385e+18,0.0099135200967,-0.0078956012493,-0.0007743611349079999
1.717763730299385e+18,-0.0020195984514999998,-0.00302538324611,0.0031345172785349996
1.717763730499385e+18,-0.0037746863905440005,0.0037101208580950008,0.0003887576167549998
1.717763730699385e+18,-0.0056144462431,0.0021634028059344004,0.0007421361398049999
1.717763730899385e+18,-0.008551170893914287,-0.0002987184008857145,-0.0009035715289590477
1.717763731099385e+18,-0.00746490885465,0.00256254043206,0.00012105230705450006
1.717763731299385e+18,-0.00870583166865,0.0014360493049305,-0.003770866163649999
1.717763731499385e+18,-0.010098577709630002,0.007165863597899999,-7.114657212850001e-05
1.717763731699385e+18,-0.015066373636205003,-0.005222528660590001,-0.0033045923568965005
1.717763731899385e+18,-0.01041190295933,0.0043102765918000005,-0.0011517659993889998
1.717763732099385e+18,0.0076788161418,0.0013392653665599999,0.002070925955155
1.717763732299385e+18,0.017511177948,-0.003939321439850001,0.0036862767652649994
1.717763732499385e+18,0.022745203581428574,-0.012077855899285714,0.0018244974005047615
1.717763732699385e+18,0.01722803493,-0.0053144560835,0.00218247559396
1.717763732899385e+18,0.011066518863699998,-0.0013523694128049998,0.0033119591009700003
1.717763733099385e+18,-0.007189776475199999,-0.005917352368749999,-0.0008741778786499999
1.717763733299385e+18,-0.014876148151399999,0.0055412947549500005,-0.000354470754965
1.717763733499385e+18,-0.010990781965349998,0.00225450607244,-0.0011995700478130002
1.717763733699385e+18,-0.013529368955850002,0.00024331471648500008,0.0004622808888120001
1.717763733899385e+18,-0.00531270778552381,-0.006273801787380951,-0.0029904241562761905
1.717763734099385e+18,-0.010867087775599997,0.00725788166748,0.000715688214342
1.717763734299385e+18,0.0009896311670999996,0.0030509941628849998,-0.00025255508951499997
1.717763734499385e+18,0.008110267599255,-0.0034022615168499996,0.00499019019755
1.717763734699385e+18,0.019283134489849994,-0.0069501556805000005,0.0018701874884000005
1.717763734899385e+18,0.0207406156715,-0.00755919577688,0.004694964527065
1.717763735099385e+18,0.01054059055231,-0.00013142675200000008,0.0046900688320828995
1.717763735299385e+18,0.0031818141550800003,-0.0044418973964849996,0.00040364903401000007
1.717763735499385e+18,-0.009878589117571427,0.003282002882961905,-0.0008488284323761904
1.717763735699385e+18,-0.013872023718850001,0.0105274530949,-0.00046664433327999984
1.717763735899385e+18,-0.017427959258055,0.00025038864697,-0.0014985525165735001
1.717763736099385e+18,-0.012411529303299997,0.0017605507165150002,-0.000974749133355
1.717763736299385e+18,-0.0140648062342,0.004447833064625,-0.002860677870895
1.717763736499385e+18,-0.017514453874850004,0.012451071153100002,-0.003259058121962001
1.717763736699385e+18,0.011722021340399999,-0.0036291485534725005,0.00379983476026
1.717763736899385e+18,0.027588609428571425,-0.010334774696809525,0.0036718220494076186
1.717763737099385e+18,0.021240053697499997,-0.021742407604,-0.0037816070428000003
1.717763737299385e+18,0.01774112178265,-0.0061056902633,0.006248883554055001
1.717763737499385e+18,0.004112771956226,-0.00537919249605,-0.002772956772305
1.717763737699385e+18,-0.00213611466466,0.0044309742399199995,0.0039177976433100005
1.717763737899385e+18,-0.012948997936194997,0.00375098778168,-0.00499116283055
1.717763738099385e+18,-0.014991174748090006,-0.002021371096450001,0.000777609669701
1.717763738299385e+18,-0.0109362957078,0.01296631514515,-0.000699049653517
1.717763738499385e+18,-0.020366507006666666,-0.007027879080285715,-0.002003534708042857
1.717763738699385e+18,-0.012225412740499998,-0.0008066838492999998,0.0003055870648399998
1.717763738899385e+18,0.02073375233375,-0.007555395900200002,0.00043251251334499994
1.717763739099385e+18,0.024471300376000003,-0.003534479497354999,0.00144661458905
1.717763739299385e+18,0.019882506318999998,-0.006924943393249998,0.0007230590039400001
1.717763739499385e+18,0.011426764482114998,-0.0065636779418,0.0020235400179250003
1.717763739699385e+18,-0.00592655711235,-0.0032623856678499997,-0.005158396367789501
1.717763739899385e+18,-0.010385749817238095,0.0031345786880942863,-0.0007038399621266666
1.717763740099385e+18,-0.010860913060900002,0.01362764192725,-0.00538714786537
1.717763740299385e+18,-0.01826142296805,0.004505558404814999,-0.0047697742350499995
1.717763740499385e+18,-0.012430927204950001,0.0034715174463,-0.0005483181682474999
1.717763740699385e+18,-0.010443214699700002,0.006147423316605,-0.0027169259846900004
1.717763740899385e+18,0.009952626563475,-0.00320991696789,0.005865402915069
1.717763741099385e+18,0.020585442287650003,-0.01831695945,0.0017430935520200003
1.717763741299385e+18,0.019626684130952383,-0.018873701669523808,-0.0008702797460571429
1.717763741499385e+18,0.0186174131,-0.0097561846479965,0.00154444651551
1.717763741699385e+18,0.0014408809246800004,-0.008397865411675,0.0013023036998399992
1.717763741899385e+18,-0.008035059063099998,0.00030475388043999993,-0.0014675554352765001
1.717763742099385e+18,-0.006281397294079999,0.006152987026145,0.0015177120221795
1.717763742299385e+18,0.019599372515462003,0.004679142148405,-0.00455230482555
1.717763742499385e+18,-0.028501603799200005,0.0147088479948,-0.009634289716035001
1.717763742699385e+18,-0.0391551658605,0.0070226481185400496,-0.0005252088766045001
1.717763742899385e+18,-0.008589224224714285,0.017083467317333335,-0.011328225600814288
1.717763743099385e+18,0.014466451253359996,-0.006621141429335,0.012355018826699999
1.717763743299385e+18,0.031549056527000005,-0.028729198220999997,0.00452685701305
1.717763743499385e+18,0.0475966708725,-0.018149314657700002,-0.004128119506614999
1.717763743699385e+18,0.016706425813750002,-0.01920766388,-0.002216467354495
1.717763743899385e+18,0.00401648356325,0.0009149031363499995,0.0004586240393999997
1.717763744099385e+18,-0.0052546627936,0.007321653457499999,0.002444147784275
1.717763744299385e+18,-0.008676099146714286,0.006483529361452381,0.0013552466186128572
1.717763744499385e+18,-0.015127945227049999,-0.0037802167470849996,-0.00290207575312
1.717763744699385e+18,-0.00966412075825,0.00457666019215,-0.005361955764345
1.717763744899385e+18,-0.007134247984480001,0.0052959845751,0.0006423502113550001
1.717763745099385e+18,-0.00944205655774,0.0024879971984000005,-0.004628362541490001
1.717763745299385e+18,-0.0039724692528,-0.00032439595081150006,0.0005743381567375001
1.717763745499385e+18,-0.0036266259878650004,0.0013357725809150002,0.00022732140503
1.717763745699385e+18,-0.005670360665125,0.006215621821800001,-0.0010056472615964998
1.717763745899385e+18,-0.009283610376380952,0.0034156076476285716,-0.0004098340868371429
1.717763746099385e+18,-0.0018615694949405,0.00337587554246,-0.00016397805882950006
1.717763746299385e+18,-0.0009348185557549998,0.002312661020585,6.273782348950001e-05
1.717763746499385e+18,0.004788346306139999,-0.001178117655255,0.0012856095682049998
1.717763746699385e+18,0.01177721419475,-0.003869614651269999,0.0014317534049925
1.717763746899385e+18,0.016213859477,-0.0075963262704,0.001954016007935
1.717763747099385e+18,0.01086813809775,-0.0045449484489349995,0.001652091078045
1.717763747299385e+18,0.004540884129601429,-0.005228487796671429,0.0007167336909523808
1.717763747499385e+18,-0.007853472337249999,0.0035135562997125,-0.00068406874788
1.717763747699385e+18,-0.009234256099400002,0.00569320297797,0.00033535265822000023
1.717763747899385e+18,-0.013531052827028999,0.003564335161425,-0.00349604100952
1.717763748099385e+18,-0.0117716122183,-0.0009634430985910001,-0.0038299815379949998
1.717763748299385e+18,-0.0100962526405,0.00446055600195,-0.002197231480395
1.717763748499385e+18,-0.009054255835049999,0.00361706669209,0.002397600433271
1.717763748699385e+18,-0.00848091229575,0.006385022809419999,0.0007544701803285
1.717763748899385e+18,0.003749871726090476,-0.0012535803972761905,0.00026716295233333333
1.717763749099385e+18,0.014842289965,-0.009210051538349999,0.0031620478373150006
1.717763749299385e+18,0.0205453107615,-0.01180256659895,0.0027044070360349995
1.717763749499385e+18,0.0156273147788,-0.004917074542150001,0.0031621536006150005
1.717763749699385e+18,0.0177995751152,-0.0028452304540949997,0.005417520762545
1.717763749899385e+18,0.0038486956798599995,-0.004974887112575,-0.0007356261717840001
1.717763750099385e+18,-0.0115154657052,0.00220702927335,-0.0012940502491600003
1.717763750299385e+18,-0.012277801226704764,0.005608694960395238,-0.0013078764591290478
1.717763750499385e+18,-0.0108980360909,0.005603347881749999,-0.002781056083035
1.717763750699385e+18,-0.01343829792525,0.0038529816548250008,-0.0021728797407649996
1.717763750899385e+18,-0.003955462146649999,0.0032448261742450005,-0.0054414242277099996
1.717763751099385e+18,-0.0096586769679,0.00632450713325,-0.0025525379812250002
1.717763751299385e+18,-0.01069191016695,0.00652007958845,0.0006819390226359998
1.717763751499385e+18,0.0088947632525932,-0.0008069925941000001,0.0012790812178975
1.717763751699385e+18,0.014416812963338096,-0.011692928659428573,0.0055954803800642855
1.717763751899385e+18,0.0200702256065,-0.009123345894900001,0.0011782841116050001
1.717763752099385e+18,0.015896310377999996,-0.00728951261895,0.002970900619445
1.717763752299385e+18,0.007493077055555001,-0.0073915507059,0.0013548311079690002
1.717763752499385e+18,-0.00222179687695,-0.00251830087489,-0.0011740017217450002
1.717763752699385e+18,-0.0139899907986,0.005488596437399999,-0.001036313781485
1.717763752899385e+18,-0.021775494003500005,0.00997500113405,-0.004245210368640001
1.717763753099385e+18,-0.019032817688634997,-0.00026142521527400004,-0.0016092463163500004
1.717763753299385e+18,-0.013569337759380951,0.005261673702919047,7.1349398633331105e-06
1.717763753499385e+18,-0.007546627055999999,0.00311210142685,-0.00014198828720500003
1.717763753699385e+18,-0.00582387897013,0.004484228510317699,-0.0016867095138600001
1.717763753899385e+18,0.011899192911249998,-0.0039061563204349998,0.001568922319028
1.717763754099385e+18,0.018374998216500002,-0.001993401406795,0.0025420257007100003
1.717763754299385e+18,0.0173133133905,0.001349826296785,0.0032822588576149996
1.717763754499385e+18,0.01373934000192,-0.007680152321950001,0.0026667009342199997
1.717763754699385e+18,0.011753843453190476,-0.006948300659190475,0.0003463389639066667
1.717763754899385e+18,-0.00442744965554,-0.0011105982935724998,-0.0014306204102200004
1.717763755099385e+18,-0.011993402475549999,0.00896690636902,0.0016658518231549998
1.717763755299385e+18,-0.011917543660999999,0.0013696644454949999,-0.00214277126362
1.717763755499385e+18,-0.01137865611875,0.0022546359337695,-0.0018462591921499997
1.717763755699385e+18,-0.01395929126355,0.004370832012402,-0.00084518750672
1.717763755899385e+18,-0.007308497984380001,0.002817549206764,0.0008834856097900001
1.717763756099385e+18,-0.007330109062699999,-0.00024110781379000005,-0.002590031176835
1.717763756299385e+18,0.009529258175047618,-0.002641912704790476,0.0017338665091309047
1.717763756499385e+18,0.0165602060975,-0.00627721028837,0.00084122881532
1.717763756699385e+18,0.014237659843549999,-0.007499305670815,0.002948453463575
1.717763756899385e+18,0.016515943733999998,0.0008215644745545,0.00273900215982
1.717763757099385e+18,0.015704564459994998,-0.00793246338192,0.00577016688221
1.717763757299385e+18,-0.00879240561035,-0.004485668870985,-0.001958319591345
1.717763757499385e+18,-0.014656492645239999,0.005801206641089999,-0.00019780578432000004
1.717763757699385e+18,-0.013860837778095238,0.007357961542809525,-0.00048428055433300004
1.717763757899385e+18,-0.015456672293,0.0032454368891549996,-0.0031773589842700005
1.717763758099385e+18,-0.0148607910157,0.005951912177430999,-0.0018323662691349999
1.717763758299385e+18,-0.0031774470842399994,0.006852869538249999,-0.003791316714985
1.717763758499385e+18,-0.0027408840716285,0.006669748108499999,-0.0010579398949794997
1.717763758699385e+18,0.004368860938135,-0.002102736348825,-0.001847264601375
1.717763758899385e+18,0.009988357599215,-0.005114920844800001,0.00255982498652
1.717763759099385e+18,0.0201563432815,-0.00903909590525,0.0043659519869549985
1.717763759299385e+18,0.016735939619095235,-0.00804451200002857,0.0009583193154904761
1.717763759499385e+18,0.01104795159213,-0.004336542112455001,0.00286002127106
1.717763759699385e+18,0.003969656783434999,-0.0031182084234950003,-0.00011420104415000003
1.717763759899385e+18,-0.0084599140735765,0.002352496178205,-0.001275476609615
1.717763760099385e+18,-0.014905711636500002,0.006816801417199999,-0.0014981746965050003
1.717763760299385e+18,-0.016389837976900003,0.0034069448241550006,-0.002262927743055
1.717763760499385e+18,-0.012426411546750001,0.0034098450676449997,-0.0011490185280224
1.717763760699385e+18,-0.015226263597238096,0.012472124792333334,0.0012373578890095237
1.717763760899385e+18,-0.0092844235479,0.0030385593302950003,-0.002089298458235
1.717763761099385e+18,0.0023778639763,-0.0021413297043605005,-0.0013107725244049999
1.717763761299385e+18,0.019035731536,-0.004685225675349999,0.001458688790485
1.717763761499385e+18,0.016014178702500003,-0.0013075550085765,0.00391732465943
1.717763761699385e+18,0.015217288677049998,-0.008643185382300002,0.0010765846471800001
1.717763761899385e+18,0.016570275182999996,-0.004977214534477,0.00197642937429315
1.717763762099385e+18,0.0030341187296230006,-0.0017269741509900003,0.0015892932656365003
1.717763762299385e+18,-0.009944684135390477,0.0007292119054513333,-0.0015640324201642857
1.717763762499385e+18,-0.015313720901299996,0.0015067961415700004,-0.0036797955516949996
1.717763762699385e+18,-0.014002843037599999,0.005588299128905001,-0.001045688515365
1.717763762899385e+18,-0.015251997719999999,0.004923093831405001,-0.0016441045386965
1.717763763099385e+18,-0.0138038019482,0.0053685643711165,-0.00110832796198
1.717763763299385e+18,-0.005210581888205,0.004417874629177001,0.0005321974167700001
1.717763763499385e+18,0.0022556256937955,-0.0016743584477478999,-0.0009015964578099999
1.717763763699385e+18,0.011931347183523809,-0.0033177314549380954,0.002543357245457143
1.717763763899385e+18,0.018226467352,-0.006592769106049999,0.0002745574806149999
1.717763764099385e+18,0.019104349845,-0.004472794290750001,0.0017764251389050002
1.717763764299385e+18,0.01204849623595,-0.0021570955869799997,0.002640617731935
1.717763764499385e+18,0.007448365268589001,-0.0013439655188144997,0.0029401669976930004
1.717763764699385e+18,-0.0036524724040100007,-0.0010437089833900003,-0.0013001920248099997
1.717763764899385e+18,-0.0074174788954900015,0.0025822067400389998,-0.0004912370350350001
1.717763765099385e+18,-0.01472753268657143,0.007244631326780953,-0.00016637466891571414
1.717763765299385e+18,-0.015282906092200002,0.001756963436345,-0.0030819109757849994
1.717763765499385e+18,-0.005672967777645001,0.001393299386835,-0.00025295785743950004
1.717763765699385e+18,-0.010165274235900001,0.0024324827129115,-0.00148404079369
1.717763765899385e+18,-0.00540196261085,0.005985116155475,-0.00027288338178000005
1.717763766099385e+18,0.007407435186540001,0.0018648457829649999,0.00089800617415
1.717763766299385e+18,0.015132781582499996,-0.002773341827455,0.0025696336641035
1.717763766499385e+18,0.01705926028135,-0.008799473801649998,0.0006971753668599999
1.717763766699385e+18,0.01238844820307619,-0.009970563308257142,3.5995672952380944e-05
1.717763766899385e+18,0.015017633652500001,-0.0008513204869550001,-0.0008295017527450002
1.717763767099385e+18,-0.004178774892455,-0.00010134957266100004,-0.0009352213994514998
1.717763767299385e+18,-0.0208550738406,0.0064675339379,6.7559769794999254e-06
1.717763767499385e+18,-0.01469891027085,0.0068651201783400005,-0.002988033590355
1.717763767699385e+18,-0.0124180437988,0.006129635614769501,-0.0003384935436850001
1.717763767899385e+18,-0.012592154218599999,0.0031454911804109998,-0.0011240124527349999
1.717763768099385e+18,-0.008060619500885716,0.005787407857461904,-5.434139727428568e-05
1.717763768299385e+18,-0.0046309071446749995,0.0013322071811720502,3.428396302900001e-05
1.717763768499385e+18,0.007630508643105001,-0.0041508175665350006,0.000112323276835
1.717763768699385e+18,0.017059561146000005,-0.003932794131050001,0.0018613735562805
1.717763768899385e+18,0.01877477141215,-0.010324410395845,0.0015359214856450003
1.717763769099385e+18,0.019535123276499998,-0.0061585434129000005,0.0011905178196265
1.717763769299385e+18,0.016691905634,-0.0053562544578999996,0.001804668700789
1.717763769499385e+18,0.0021810656064765,-0.00398248315318,0.0016510882066199997
1.717763769699385e+18,-0.009023835627333334,-3.7341334285714365e-05,-0.002977219742828572
1.717763769899385e+18,-0.012940844195549996,0.00888932147095,-0.0006629934535
1.717763770099385e+18,-0.017103760782,0.007535732828650001,-0.0023352873046655004
1.717763770299385e+18,-0.020691042160600002,0.0022334217210169998,-0.0029963791136875
1.717763770499385e+18,-0.011039194097290001,0.0055612187366,0.0001596722402850001
1.717763770699385e+18,-0.0019213319610779998,0.0036043498897049995,-0.0007925466692400001
1.717763770899385e+18,0.00532456755429,-0.0009642755495985003,0.00043297597434549995
1.717763771099385e+18,0.018684706540095238,-0.008143090576714284,0.0008106319389476192
1.717763771299385e+18,0.024543091468500002,-0.0053880627034,0.0018725402653345003
1.717763771499385e+18,0.0191517383785,-0.006627169262949999,0.0024718064465449998
1.717763771699385e+18,0.007732909888035,-0.008019302308165,-0.0010980499092037503
1.717763771899385e+18,-0.011661099153349999,0.0024272034641875,-0.000566106790305
1.717763772099385e+18,-0.01617603860705,0.009453529910949998,0.00045173132100569997
1.717763772299385e+18,-0.021346681750499998,0.00538622947697,-0.0028994938301045
1.717763772499385e+18,-0.014346690265700002,0.0008721602497550002,-0.00160911806745
1.717763772699385e+18,-0.0071389848099047614,0.007329459512952381,0.0002726865488666667
1.717763772899385e+18,-0.0016632060228149999,0.005625763826600001,-0.001050473778796
1.717763773099385e+18,0.014210583445050004,-0.005311109928535,0.0015427899896500001
1.717763773299385e+18,0.0215026883405,-0.007802526209950001,0.0018123295158199999
1.717763773499385e+18,0.021933952160999998,-0.00709520864815,0.0023030241602673496
1.717763773699385e+18,0.011309612419775,-0.002041369141085,0.0030518126034850004
1.717763773899385e+18,0.0031136357514000004,-0.004101509170045,-0.0008880776117700002
1.717763774099385e+18,-0.009149771172,0.0035167206079761907,-0.0012556297117395242
1.717763774299385e+18,-0.01332512358205,0.00882602324715,-0.0011076334514
1.717763774499385e+18,-0.0169020567152,0.0017399235626365,-0.0017093977658249999
1.717763774699385e+18,-0.015623897779050003,0.001863351848395,-0.003088199289025
1.717763774899385e+18,-0.009947343403299998,0.0062527441306500006,-0.003724562307097
1.717763775099385e+18,-0.00893337083995,0.008311773534200002,0.001010446966405
1.717763775299385e+18,0.01733652653695,-0.006877698562900001,0.00072719869192
1.717763775499385e+18,0.01926263647857143,-0.007776436351666667,0.0026169353430228574
1.717763775699385e+18,0.018380676907499997,-0.0025047289439600003,0.0013996366002949998
1.717763775899385e+18,0.014502508781605004,-0.0035170969203550005,0.0017039730679995
1.717763776099385e+18,0.006580860834194999,-0.0037254731985999997,-7.078156924000002e-05
1.717763776299385e+18,-0.00853414763775,0.00121215176794,-0.0009834263648104999
1.717763776499385e+18,-0.021484419854449998,0.03203841219695001,-0.018059130838249997
1.717763776699385e+18,-0.21395470722499996,0.019580286355854997,-0.01459058838625
1.717763776899385e+18,-0.03763760664020001,0.0012681698895299998,-0.02278980757105
1.717763777099385e+18,0.018556304925,0.004345140541809523,0.015990144463242855
1.717763777299385e+18,-0.057964655430900014,-0.0027670826073,-0.027556593389594996
1.717763777499385e+18,-0.08188212304524001,0.19821918142050002,-0.055277693109000006
1.717763777699385e+18,-0.05381357707309999,-0.05797653584175,0.244302738452
1.717763777899385e+18,0.2164493604055,-0.060568185062199985,0.03960676356085
1.717763778099385e+18,0.40273384527000006,0.00017675644564999483,0.033185350533499997
1.717763778299385e+18,0.8575419783849998,0.074612877282,0.23769443636345003
1.717763778499385e+18,0.6360828407952381,-0.2985676828580952,-0.05352183461571428
1.717763778699385e+18,-0.4138205617745,-0.14357167369850002,-0.2566469348999999
1.717763778899385e+18,-0.9562783718500001,-0.15980937401525003,-0.01670894333075
1.717763779099385e+18,-0.8535659015499999,-0.05434690597498,-0.019204842239950004
1.717763779299385e+18,-0.1304001345777,0.0044809624554999995,-0.02461798324515
1.717763779499385e+18,0.419807474134,0.09355474875615,0.11413707389250002
1.717763779699385e+18,0.719972297545,0.15478886720260002,0.06711404205315
1.717763779899385e+18,0.649808153525,-0.015459822989000005,0.027789476692000003
1.717763780099385e+18,0.4860875734333333,-0.07938206076814762,-0.11005772907657145
1.717763780299385e+18,-0.11482423350889999,-0.08476928360649999,-0.05860239844894501
1.717763780499385e+18,-0.6829508036349999,0.06922717282155,-0.0088297976908
1.717763780699385e+18,-0.788093402975,0.10965761901445,0.0378224220595
1.717763780899385e+18,-0.68747973293,0.02865784127535,0.0017865834481500004
1.717763781099385e+18,-0.07065218090649998,-0.0259674727115,-0.0019483461867404988
1.717763781299385e+18,0.37527892159850007,-0.11048894131430001,0.030010372819500003
1.717763781499385e+18,0.5761678474285714,-0.502518905052381,0.04690487421285714
1.717763781699385e+18,0.6164463445450001,-0.0933058116574,-0.0045921009261500004
1.717763781899385e+18,0.551491464675,0.008476377222150005,-0.1012417905895
1.717763782099385e+18,0.3763249706555,-0.007305491340499998,-0.04989085800724998
1.717763782299385e+18,-0.1309826891502,0.121586879717,-0.012051029599499998
1.717763782499385e+18,-0.58189404756,0.04451615158685,-0.055890581246499996
1.717763782699385e+18,-1.0260699033350003,0.05134485121955,-0.06924703166394999
1.717763782899385e+18,-0.7744787454550001,0.06122419402194999,0.049735107595
1.717763783099385e+18,-0.1567110410627143,0.11269570172199998,0.019832309243571426
1.717763783299385e+18,0.14739461542845,0.29248364558500006,0.11966532353099998
1.717763783499385e+18,0.7321964025449998,0.07004251317004999,0.07656875886395001
1.717763783699385e+18,0.6876614853899999,-0.0987666755845,-0.0335800995563
1.717763783899385e+18,0.531962059445,-0.0792028456395,0.06436459347600001
1.717763784099385e+18,0.23611952448249998,-0.05665860660600001,-0.025737319190000003
1.717763784299385e+18,-0.464323025945,0.08573265518785,0.0009861012450500003
1.717763784499385e+18,-0.6466728221761906,0.13204002575571427,-0.09737782557599999
1.717763784699385e+18,-0.605757097905,-0.030196256756595007,-0.004214209900000001
1.717763784899385e+18,-0.19831910887649998,-0.026589511847050006,0.027526557735650003
1.717763785099385e+18,0.04901982545900001,-0.19668687816125,0.07880122028549999
1.717763785299385e+18,0.6198850765899999,0.223288714521,0.0618516464457
1.717763785499385e+18,0.48804233373500006,-0.31747429035400004,0.036816202712150005
1.717763785699385e+18,0.67324458063,-0.111346945822,-0.029530737350960005
1.717763785899385e+18,0.311218293951,-0.00934040104,-0.040636123868
1.717763786099385e+18,-0.4060087260761905,0.1430756815104762,0.0032854704408095243
1.717763786299385e+18,-0.6929217308749999,0.0700517441087,-0.03496149266200001
1.717763786499385e+18,-0.64016538262,0.108365505472,0.022935852443499993
1.717763786699385e+18,-0.5731503689599999,0.046300345931800005,-0.07350952731000002
1.717763786899385e+18,-0.050170403343000006,-0.22401520703149996,0.07055739669135
1.717763787099385e+18,0.373721516875,0.19838011226850003,0.0144144318529
1.717763787299385e+18,0.19104414396,0.30640249400499997,0.139533650122
1.717763787499385e+18,0.10820166890666665,-0.06848651052462382,0.04452935688138095
1.717763787699385e+18,0.0490148095832,0.037933812058600004,0.04313093427355
1.717763787899385e+18,0.044804683142,0.0402212019448,0.0368919432059
1.717763788099385e+18,0.020611812174200002,-0.18453944698500002,-0.047643924318000005
1.717763788299385e+18,0.01712120068255,-0.0508450659786,-0.019548778538759495
1.717763788499385e+18,-0.003879801318724999,0.03626313562320001,0.014315400319465002
1.717763788699385e+18,-0.022254501155000002,-0.005792505399044999,0.0014374188729399998
1.717763788899385e+18,-0.021643104075238093,0.003497996134642857,-0.0006997929498619047
1.717763789099385e+18,-0.0195490215684,-0.013485184626549998,-0.00457908344727
1.717763789299385e+18,-0.017033388278650002,-0.003906949912032499,-0.0032032009213499996
1.717763789499385e+18,-0.017306065350399996,0.005420444172295501,0.0019696484671350004
1.717763789699385e+18,-0.0056472955327099995,0.005171479761999999,0.001053318974975
1.717763789899385e+18,0.001255829323762085,0.00392274115035,0.00036254959996199994
1.717763790099385e+18,0.021923589456785,-0.00828525016545,-0.0016126958419999996
1.717763790299385e+18,0.034827939794499996,-0.0083720851106,0.002680521202295
1.717763790499385e+18,0.02515953814714286,-0.013568299922509523,0.0017089708816779524
1.717763790699385e+18,0.018970110825,-0.0066431004318,0.0022794624442420003
1.717763790899385e+18,0.011490421416149997,-0.0021059604943354997,0.001153696188725
1.717763791099385e+18,-0.01085175844752,-0.0010552056307455,-0.00015442549487500006
1.717763791299385e+18,-0.011219737399500001,0.003308676765415,0.00012603909704749996
1.717763791499385e+18,-0.014590036543349996,0.005073386210060001,0.00031708416644950005
1.717763791699385e+18,-0.01577187405212,-0.0036685775614350006,-0.00024792372129600013
1.717763791899385e+18,-0.019830016862857146,0.0028053922022476187,-0.004710968705809523
1.717763792099385e+18,-0.0182016638579,0.006767931813649999,-0.0007512696320099999
1.717763792299385e+18,-0.012923244588165003,0.00586800212039,-0.00068041872583
1.717763792499385e+18,0.018252759124860005,-0.005096317990485001,1.037725603000001e-05
1.717763792699385e+18,0.0333536417215,-0.012318009743449999,0.0018804036896209997
1.717763792899385e+18,0.025951770553500002,-0.0017178476437999998,0.002504032338015
1.717763793099385e+18,0.014563379303235,-0.00809755841075,0.00103498038413
1.717763793299385e+18,0.0076798307212050014,-0.005712422740695,0.00016992340100499998
1.717763793499385e+18,-0.004669343703386668,0.0005869351194380953,-0.00012157183318047611
1.717763793699385e+18,-0.00711858817404,0.00953100861485,0.00148312989056
1.717763793899385e+18,-0.013076803880209997,-0.00222498504495,-0.00033531294857999975
1.717763794099385e+18,-0.0268579083035,0.004974706668555,-0.004083699040350001
1.717763794299385e+18,-0.016860312945649998,0.008545685594399999,-0.0014900248090349998
1.717763794499385e+18,-0.016927068052925,0.001114351302337,0.0022020798408599997
1.717763794699385e+18,-0.0107509927593,0.000584942474745,-0.0009927789797130001
1.717763794899385e+18,0.01836865898642857,-0.008008512812238095,-0.0009434983200661901
1.717763795099385e+18,0.025037975889500002,-0.005478093563865,0.00796381807845
1.717763795299385e+18,0.021935870452,-0.010920829152269999,0.0018127101706000002
1.717763795499385e+18,0.0205947848035,-0.004554217960114999,-0.00187674948245
1.717763795699385e+18,0.00374537854202,-0.0014146648638509998,0.0009318568395275001
1.717763795899385e+18,-0.0076786752503155,0.00494145023412,0.0008622040623190001
1.717763796099385e+18,0.0035457679368849997,-0.0015009050955999996,-0.0007137865993700001
1.717763796299385e+18,0.090851144678,0.007873276411895001,-0.012826813106435
1.717763796499385e+18,0.014192632442857143,0.05276717922491904,-0.020207911773809525
1.717763796699385e+18,-0.10126501135150001,0.0050030662679,0.014200545928550001
1.717763796899385e+18,-0.006607746141899999,-0.0675962003825,-0.02320817087325
1.717763797099385e+18,-0.008608481754105002,0.0279272239183,-0.021561559185845
1.717763797299385e+18,-0.042239609174000006,0.01842508658322,-0.013225938304439999
1.717763797499385e+18,0.0207053705595,0.0317809456035,-0.02022474486095
1.717763797699385e+18,0.0019142260421499996,0.0159594535361,0.0095140314547
1.717763797899385e+18,0.0688604886365238,-0.07379724546985712,-0.016991855343714286
1.717763798099385e+18,-0.06870360061751499,0.0010075957524999987,0.0026057771755500004
1.717763798299385e+18,-0.0430781284352,-0.007796906191349999,-0.028116569667649992
1.717763798499385e+18,-0.019012707082822,0.03586141420535001,0.0031680928312999997
1.717763798699385e+18,-0.009779046825500001,0.037758389489,0.010027277340950002
1.717763798899385e+18,-0.00385208734055,0.0037939553036000022,0.012701288483049999
1.717763799099385e+18,0.0036261454457,-0.01779136200325,-0.006978036183799999
1.717763799299385e+18,0.0010753454146699998,0.00108756634865,-0.0005506739427749999
1.717763799499385e+18,-0.007131261404180952,0.007836235687047617,-8.164271937619054e-05
1.717763799699385e+18,0.01522068088015,-0.013806283032049999,0.00500450872936
1.717763799899385e+18,0.037627741880999994,-0.007031743589447,-0.006637483066949999
1.717763800099385e+18,0.03546460368639,0.008875705557699998,0.01290268804905
1.717763800299385e+18,0.030128425222,-0.018027891637149504,-0.006801559356849998
1.717763800499385e+18,-0.0044147558624,0.03363631094050001,0.008100669376925
1.717763800699385e+18,-0.05045375609814999,-0.0301192398188,-0.00550440207575
1.717763800899385e+18,-0.03758724625366666,0.013256140431093142,-0.005976615296228573
1.717763801099385e+18,-0.005054112774,1.879140031499976e-05,0.008499814161870001
1.717763801299385e+18,-0.01367545954955,-0.02821696698715,0.0020718563583
1.717763801499385e+18,0.0036139003465999998,-0.005989350995305,0.0030318923992000003
1.717763801699385e+18,-0.01504330188655,-0.0234860690665,-0.0056064511281
1.717763801899385e+18,0.0425318674185,0.0016056248681000002,0.00036933446522500015
1.717763802099385e+18,0.06101670078800001,0.01903699095175,0.0205406079065
1.717763802299385e+18,0.022822274028719045,-0.0024649004919523798,-0.011585036292714285
1.717763802499385e+18,-0.015764517291064994,-0.005731534154949999,-0.008050832454200001
1.717763802699385e+18,0.06542633461765,-0.02940147715925,-0.01832151068395
1.717763802899385e+18,-0.054686724698699986,0.024573769502349997,0.001351907418475
1.717763803099385e+18,-0.04598713921945,-0.012946972508244997,-0.01232093274605
1.717763803299385e+18,-0.00856253911055,0.011666884168715001,0.000855556642804
1.717763803499385e+18,-0.024842344130500002,0.007231380557180002,0.0003417698259400001
1.717763803699385e+18,-0.007008132827899999,0.0022353896750999997,0.0049127434847
1.717763803899385e+18,0.02080132834352381,-0.001990072750747619,0.0012081142606566668
1.717763804099385e+18,0.0417594031425,-0.015446080977700002,0.014856380968699998
1.717763804299385e+18,0.022461643595280002,-0.00830937251425,-0.001011102949455
1.717763804499385e+18,0.0146592297357,3.618876217300006e-05,0.005146555451234
1.717763804699385e+18,-0.002970182715185,0.004873673035593,0.0008587070157700001
1.717763804899385e+18,-0.006511879226385001,0.00272160272658,0.005462075094705
1.717763805099385e+18,-0.007158173131495001,-0.005565788178059999,-0.00680274987851
1.717763805299385e+18,-0.008956355397190478,0.011679402053428569,-0.005573760518333333
1.717763805499385e+18,-0.00919475944285,-0.0002365119872499998,0.00324715576185
1.717763805699385e+18,-0.00544317185415,-0.00921907011691,-0.0051574449172235
1.717763805899385e+18,0.002841748102605,0.006952905795275001,-0.004806417738965
1.717763806099385e+18,-0.0006591777346249999,0.002238775580255,-0.000954643270231
1.717763806299385e+18,-0.005981925196875001,-0.0075982970530500005,0.008806809724597499
1.717763806499385e+18,-0.018454530929999997,0.0051676534467075,-0.014859763289049996
1.717763806699385e+18,-0.023306210027495,0.0155832148161,0.00360453567721
1.717763806899385e+18,-0.025654230621380954,0.006646450442714287,0.0026602409336047624
1.717763807099385e+18,-0.01302850686425,0.0033113025941850006,0.00014360408531999998
1.717763807299385e+18,0.0338028775535,-0.0035895488574249996,0.0018717371393550002
1.717763807499385e+18,0.029787591238,-0.010872889752045001,0.00393976405
1.717763807699385e+18,0.028779894950999994,-0.009281066245900001,0.00012891744846849998
1.717763807899385e+18,0.013768894222840004,-0.002222093066715,0.00166842186583
1.717763808099385e+18,-0.001869556051485001,0.00787166114887,0.00086104406506675
1.717763808299385e+18,0.003938016974219048,-0.0007544230516190474,-0.0005266020140333333
1.717763808499385e+18,0.0073071545278999995,0.0003481222201465002,-0.0002843395806555
1.717763808699385e+18,0.04089231006455,0.003445937135100001,-0.007801617309230751
1.717763808899385e+18,-0.027001881296400004,0.00018679529884999894,0.002134222607094
1.717763809099385e+18,-0.0505391005202,0.0052880863533119995,0.00166351061798
1.717763809299385e+18,-0.0342687513685,-0.00240407744485,0.00741565034258
1.717763809499385e+18,-0.014864784944249998,0.016803168645799997,-0.01211715886625
1.717763809699385e+18,-0.00800348999234,0.005456830235450001,0.001926958677555
1.717763809899385e+18,0.03703698888476191,-0.021788861957190476,0.006482653541523811
1.717763810099385e+18,0.027111632784249995,-0.01244077261682,0.003098219400135
1.717763810299385e+18,-0.003941586940305001,0.008741296420455,-0.006293839763265
1.717763810499385e+18,-0.02103754212706,0.0221849680875,4.1997677085000003e-05
1.717763810699385e+18,-0.0183194900168,0.004059931961649999,-0.0010483218121699997
1.717763810899385e+18,-0.022930730069450005,-0.005440186894605,-0.001800799753975
1.717763811099385e+18,-0.017447049811699998,-0.0005533356336350001,-0.0032914708659
1.717763811299385e+18,0.003621454616761905,0.00475740908375238,0.0021568199153857146
1.717763811499385e+18,0.0252937480805,-0.0023828153383049994,0.001434823114055
1.717763811699385e+18,0.025114675285499998,-0.0164239520201,0.0006777833680149996
1.717763811899385e+18,0.0012741360696000004,-0.0011429103558999996,-0.0002499445458035
1.717763812099385e+18,-0.006449859344384999,0.007241045078109999,0.0018079971545449998
1.717763812299385e+18,-0.005575360317245,-0.0006826388305999999,0.00032170006309300013
1.717763812499385e+18,-0.0008040954533000003,-0.00408263473065,-0.0010451464216549998
1.717763812699385e+18,0.00011169807870190476,0.0006178287966857142,0.0004572172184261903
1.717763812899385e+18,-0.0009364279394975001,0.005246420449149999,5.3457950844500006e-05
1.717763813099385e+18,-0.0035811632986450003,-0.00352108921535,0.0003267506604399999
1.717763813299385e+18,-0.007907638952315003,0.005229707783995,-0.0008930998389349999
1.717763813499385e+18,-0.0037064609032847196,0.00304832858972,0.00035541153054199996
1.717763813699385e+18,-0.014348608115799999,0.002552208409295,-0.0017049349204800001
1.717763813899385e+18,0.0032363043172,-0.005622698820595,0.0001904743897649999
1.717763814099385e+18,0.024792282562250002,-0.00146010493047,0.00057218356524
1.717763814299385e+18,0.023250084902857144,-0.006325987654904761,0.001859952795533333
1.717763814499385e+18,0.0138638207136785,-0.007559549388939999,0.001282433967411
1.717763814699385e+18,0.00157511140567,-0.0015338211906599998,-0.0015581701706749997
1.717763814899385e+18,0.004875301520100001,0.0039225931108250005,-0.002916848764315
1.717763815099385e+18,-0.0016218438162499999,0.00434877265957,-0.00043286352873499987
1.717763815299385e+18,-0.004775774879978,-0.004694912710761501,0.0009195224265500001
1.717763815499385e+18,-0.0023383421005500026,0.002834090031735,0.00019832625983000002
1.717763815699385e+18,0.03821598099719047,-0.018414770453295242,0.04331512474242858
1.717763815899385e+18,-0.043854744438159995,-0.04732211301014999,-0.02588632160335
1.717763816099385e+18,-0.03734281773475,0.00869871334795,0.010599796648114997
1.717763816299385e+18,-0.006688305296814999,0.03603923310195,-0.00832096529245
1.717763816499385e+18,0.0627529320795,-0.015962751466300003,0.021672486712399998
1.717763816699385e+18,0.0032356193994500003,-0.020691873983499996,-0.0091093550316955
1.717763816899385e+18,-0.0010635268878000002,-0.030767792113000007,-0.00200833966905
1.717763817099385e+18,-0.007572511711219999,-0.043096619843619996,-0.019319158513499995
1.717763817299385e+18,-0.003203575766642857,0.02900759866952381,0.0035331145241190463
1.717763817499385e+18,0.03011250026839,0.0938456945135,0.0013840558236249997
1.717763817699385e+18,-0.013570176553155,0.0025478563505499994,-0.01012599895595
1.717763817899385e+18,-0.07602209476737001,0.06853692899450001,-0.0073319415794
1.717763818099385e+18,-0.021865737683633507,0.014117660655699998,0.0003813296438799995
1.717763818299385e+18,0.04886518548999999,-0.056581615284000006,0.014188852615449998
1.717763818499385e+18,0.026455351803499998,-0.0238436896815,-0.0028417257013100003
1.717763818699385e+18,0.009281666305714286,-0.01074400222552381,-0.005287568960880952
1.717763818899385e+18,-0.024214467324224997,0.0109898003512045,-0.0064227029566
1.717763819099385e+18,-0.0219225231914,0.01407828256505,-0.00285018626595
1.717763819299385e+18,-0.011254338977649998,-0.0027375514037,-0.00010914847946499999
1.717763819499385e+18,-0.009572172182434998,-0.00023327426724999997,-0.0009981917334200003
1.717763819699385e+18,-0.007887278986400001,6.660050709499999e-05,-0.0010702313447095
1.717763819899385e+18,-0.0057596145657749995,0.0025813664660205003,0.0018029622150422503
1.717763820099385e+18,-0.0040464769584399995,0.00293374939353,-0.001131365058175
1.717763820299385e+18,0.005266281804095237,-0.000345579204252381,-0.0010662769255238094
1.717763820499385e+18,0.01820370792365,-0.001860194472845,0.00099552200992
1.717763820699385e+18,0.02207915606,-0.005597788770700001,0.00221936135796
1.717763820899385e+18,0.014072907893360001,-0.00209267485209,0.0044909200986475006
1.717763821099385e+18,0.0177939271548,-0.011655370332100002,-0.000645377964525
1.717763821299385e+18,0.0047335542269000015,0.0016637165680850005,-0.0009147747826559998
1.717763821499385e+18,-0.007585089630399999,0.005406383850345,-0.0003751413198780001
1.717763821699385e+18,-0.016272917833142855,0.0022217902421,-0.0017007377020571428
1.717763821899385e+18,-0.014747123326899998,0.0034542848821849997,-0.0024908907186749997
1.717763822099385e+18,-0.01195467524145,0.00418585096517,-0.0016640703891385
1.717763822299385e+18,-0.0138026771894,0.00607361737634,-0.0032985725906850005
1.717763822499385e+18,-0.010236132146099999,-0.00513816040445,-0.0019568905349900004
1.717763822699385e+18,-0.034496543832795004,-0.13091928791150004,0.012122321151944001
1.717763822899385e+18,-0.00517884195885,-0.072329005785,-0.029426297221150005
1.717763823099385e+18,0.010023493278669998,-0.011791784653115001,-0.0018749135076500001
1.717763823299385e+18,0.03813982542157143,-0.04335887530595238,-0.04841534921823333
1.717763823499385e+18,0.024048599536000005,0.0014870821384099999,0.0033074703536349996
1.717763823699385e+18,-0.06928422460200001,0.011757937597899,0.0208093762521
1.717763823899385e+18,-0.1395440259845,0.0478820725862675,-0.003890481032499999
1.717763824099385e+18,-0.03153766221445,0.027990245866550002,8.148670889999952e-05
1.717763824299385e+18,-0.006088378600704999,-0.0178135749658,-0.0007682934756500018
1.717763824499385e+18,0.01911403363315,0.01922342591035,-0.010615997283849998
1.717763824699385e+18,0.006197557704371432,0.005632863191761904,0.015344308556809527
1.717763824899385e+18,0.0289319925828,0.034621055587525,0.013188914221614997
1.717763825099385e+18,-0.0062774649533805,0.07832044064899998,-0.05835962018770001
1.717763825299385e+18,-0.0015777736622255001,0.010210999962300005,0.029758610367599997
1.717763825499385e+18,-0.004207187484138,0.00029014623722772913,-0.0087541942252
1.717763825699385e+18,-0.013339619955000001,0.030445232988000004,-0.0023714443202899997
1.717763825899385e+18,-0.0007241294253199999,0.0245154195,0.00036202158087849995
1.717763826099385e+18,0.003009247998190475,0.026110812046095243,-0.0077906011913523796
1.717763826299385e+18,0.022169567993200003,0.00303502567127,0.00204378359485
1.717763826499385e+18,0.025692268926650004,0.0276088393046,-0.001764750061525
1.717763826699385e+18,0.023206953472000004,0.0056458349339,0.0081342085853555
1.717763826899385e+18,0.00895066564182,0.013211513241400002,0.011820761299900003
1.717763827099385e+18,0.0017716058357300003,-0.006853682338385,0.00396674388285
1.717763827299385e+18,-0.01108375089841,-0.021038340568,-0.0023835395695999996
1.717763827499385e+18,0.002197932155055,-2.0015542319999808e-05,-0.0024036524820700003
1.717763827699385e+18,-0.002321946978014286,-0.002881959668328571,0.0016304939274157143
1.717763827899385e+18,0.003777269861845,0.003442181623645,0.004012779635464999
1.717763828099385e+18,0.005891804915094999,-0.0014784990578950007,0.0040710705329
1.717763828299385e+18,-0.02213063316855,0.0023839676872,-0.0010705933455000011
1.717763828499385e+18,0.020621628279,0.017580905672315,-0.0033356776444
1.717763828699385e+18,0.01875784021034,0.015869426971699997,0.01763268786299
1.717763828899385e+18,0.0437477224505,0.047065173461549994,0.01986838556
1.717763829099385e+18,0.057714045846190484,-0.05831977521095239,-0.008429940003233334
1.717763829299385e+18,-0.006538057141004999,0.04936784834154999,0.01561262269975
1.717763829499385e+18,0.010309013316199999,0.010696477838750001,-0.02349226200064499
1.717763829699385e+18,0.018702381104500003,-0.030488385388049998,0.00843039469389
1.717763829899385e+18,0.039036720898999996,-0.065910704806,0.0147932849827
1.717763830099385e+18,0.03017198378149999,-0.053778928517500005,-0.00024853729413499995
1.717763830299385e+18,-0.003382196923945001,-0.0031604478954500013,0.00027448144985999965
1.717763830499385e+18,-0.005990911281503001,-0.0217184551763,0.009553993667110001
1.717763830699385e+18,-0.004759493777704763,-0.002991670975309524,0.004023239354920953
1.717763830899385e+18,-0.0022314160127849996,-0.0050868072194,0.009033328946519998
1.717763831099385e+18,-0.007898635755154999,-0.0088837753518265,0.00198052540651
1.717763831299385e+18,-0.0022191635391344998,-0.0038076058728650003,0.0011249784612650002
1.717763831499385e+18,-0.0033140122592500002,-0.007510384847099999,0.0022156398744199997
1.717763831699385e+18,-0.00522882507625,-0.00039771490289,-4.346152989e-05
1.717763831899385e+18,-0.0041977763757,-0.0037540049292400005,-4.437360327799989e-05
1.717763832099385e+18,0.0005584581517523808,-0.0004783227951047619,-0.0010493381137714284
1.717763832299385e+18,-0.006804535816968001,0.0005221935572020001,0.0007882102159854999
1.717763832499385e+18,-0.034914695564500005,0.007960433711185,-0.0018759239464450003
1.717763832699385e+18,-0.019210334961000004,0.00531636236708,0.00015830640893999985
1.717763832899385e+18,0.009609650011809998,-0.00370579650626,-0.00022681507401
1.717763833099385e+18,0.018195272237099998,-0.0027781167530500006,-0.0013146972050350004
1.717763833299385e+18,0.018793204822849997,-0.01228209221685,-0.0002764280769950001
1.717763833499385e+18,0.0209449840235,-0.004614816815554999,-0.00044544348482
1.717763833699385e+18,0.011146828604190476,-0.007009441476761906,0.0007474693091952379
1.717763833899385e+18,-0.00942679083647,0.000805318262375,-0.00064300330129
1.717763834099385e+18,0.0014796725765249996,0.0034532660501850007,-0.000977965473384
1.717763834299385e+18,-0.0007131741611800001,-0.00169056902525,-0.008201634150100001
1.717763834499385e+18,-0.006709138251585001,0.006436960038575,-0.0020316677808335003
1.717763834699385e+18,-0.0045979022862,-0.0014593809842915,0.0028914998871200004
1.717763834899385e+18,-0.0007169861025935001,0.0011373849469499997,0.00044329388168700003
1.717763835099385e+18,-0.0031263146747999996,0.0020945154108571434,-0.0007502885002738094
1.717763835299385e+18,0.000677673297375,-0.0011876233386295,-0.0027269643731799996
1.717763835499385e+18,-0.006039405840894999,0.0042067464670875,-0.0025791676946355004
1.717763835699385e+18,0.00043929405483999996,0.0077675314270199995,0.004082738468899999
1.717763835899385e+18,-0.0020282178390385,-0.006462284095949999,-0.00699442677425
1.717763836099385e+18,-0.006729131616575,0.0026142686140885,-0.0007768073003699998
1.717763836299385e+18,-0.004356999759426,0.006773760018100002,0.0005522236227749999
1.717763836499385e+18,-0.015313712589350001,0.014118672837599999,0.00078684316265
1.717763836699385e+18,-0.0035998669634547623,-0.002654956631247619,0.002387401415
1.717763836899385e+18,0.020454071508,-0.0124485781181,-0.004828473576310001
1.717763837099385e+18,0.020768754184,-0.011031797900549999,-0.0018543849349999999
1.717763837299385e+18,0.018299093097,-0.008374461996465,0.000580182764785
1.717763837499385e+18,0.00794542665263,-0.01090520874195,0.0025757470750400004
1.717763837699385e+18,-0.00895419823975,0.004053967899945001,-0.0016453038086165002
1.717763837899385e+18,-0.015292024332749999,0.004224566917369999,-0.0014845510596299997
1.717763838099385e+18,-0.014558930881238094,0.007932854140119048,-0.0013787587882523806
1.717763838299385e+18,-0.0039191238177825,0.0057263198307805005,-0.0019170498708844998
1.717763838499385e+18,0.03366587566935,0.006650115817145,-0.010242273169875
1.717763838699385e+18,-0.03942523617650001,0.013756283698365002,-0.0032622174127849997
1.717763838899385e+18,0.038338210154149996,0.020710908994035,-0.0022632890381600016
1.717763839099385e+18,0.013840879020529998,0.0003984961831999999,-0.0017289402424749995
1.717763839299385e+18,-0.019109276077299998,0.0347705321954,-0.00761018550233
1.717763839499385e+18,-0.010728391163580002,0.019626209559450002,-0.010089620366895
1.717763839699385e+18,-0.01898698514161905,0.0038396396580476196,-0.015757852965619042
1.717763839899385e+18,-0.008715028266101,-0.021481326605905,0.01067977652445
1.717763840099385e+18,0.0160350395948,-0.0283779694235,0.014950431405905998
1.717763840299385e+18,0.0149511226803,-0.0406529847525,0.003971564944534999
1.717763840499385e+18,0.006990848075099999,-0.00651964875937,0.0052329808361949995
1.717763840699385e+18,0.005676151934784999,0.006355006748147001,-0.00023191730719499985
1.717763840899385e+18,-0.0432535476802,0.028043536795399993,-0.00691186557507
1.717763841099385e+18,-0.00597343172228619,-0.012259435385486668,-0.002878280755138095
1.717763841299385e+18,-0.0052350635876,-0.01842450031546,0.022909923106179998
1.717763841499385e+18,-0.006933848007349999,-0.0102811560728,-0.0012491050875700002
1.717763841699385e+18,-0.009040281898200001,-0.008136636518649999,0.00831650926175
1.717763841899385e+18,-0.008389552925985002,0.0020622535841150003,0.0013957510467
1.717763842099385e+18,-0.003641333936505,-0.01885346170775,-0.0036185106376749993
1.717763842299385e+18,0.022984516375499996,0.0198208143005,-0.0010271146432250002
1.717763842499385e+18,0.017358414429999997,-0.0020601719264095237,0.0036810388167476194
1.717763842699385e+18,0.018367622652899998,-0.0082946374894,0.0017039843253499995
1.717763842899385e+18,-0.0031153811725950003,0.0027761435949399996,-0.001308747124845
1.717763843099385e+18,-0.01569474936675,0.00150889682103395,0.0005316559632100001
1.717763843299385e+18,-0.015206742101499998,0.0082299279861,-0.00043877024437500006
1.717763843499385e+18,-0.015002972492,0.0015667439263450003,-0.00116397085359
1.717763843699385e+18,-0.012463068542775,-0.011293262615950001,-0.0071389356636
1.717763843899385e+18,0.007990739629124999,-0.078404359519,-0.044399283893149996
1.717763844099385e+18,0.03292093213142857,0.006978284611999998,-0.027602881481238097
1.717763844299385e+18,0.0338297587006,0.05381201044739999,0.015045653795615
1.717763844499385e+18,0.0055920498604999985,0.0101971215571,0.009240220324385002
1.717763844699385e+18,-0.205954558037,0.0003833501994658519,-0.02418447574662
1.717763844899385e+18,-0.016772467258555003,0.01104967793255,-0.021698432089950002
1.717763845099385e+18,-0.019630427832350004,-0.0069944370076000005,0.0240903648555
1.717763845299385e+18,-0.012014001259699997,0.011014523531850003,0.035647306404000004
1.717763845499385e+18,-0.0031081709480952372,0.0873196785832381,0.039814769069047615
1.717763845699385e+18,-0.0180017226365,-0.036747962702,-0.08141599934055001
1.717763845899385e+18,0.004440531775369999,-0.01684145673665,-0.0181818792595
1.717763846099385e+18,0.00214735597825,0.028127356455794998,0.025337045501199994
1.717763846299385e+18,-0.09547611484350002,0.003135635634415,0.015580083896500002
1.717763846499385e+18,-0.04759235540800001,0.190397175952,-0.010230768600900006
1.717763846699385e+18,0.07171084648598999,0.322512673595,0.26063859984
1.717763846899385e+18,0.465059292305,-0.101355881517,0.085509391133
1.717763847099385e+18,0.5399823898285715,-0.18530999356942854,0.03167097945714285
1.717763847299385e+18,0.44537065774,-0.156376215455,0.0256608695779
1.717763847499385e+18,0.0329596748565,-0.09440349937399997,-0.0881179627965
1.717763847699385e+18,-0.019189783327800004,-0.012860748359849997,0.0034339752743000004
1.717763847899385e+18,-0.6950332492200001,0.21485832519749998,-0.0793219211736
1.717763848099385e+18,-0.8305876404299999,0.03751222598799999,-0.19727705382900002
1.717763848299385e+18,-0.44381846711,-0.21489666364999999,-0.09073900050099999
1.717763848499385e+18,-0.030138087776190477,0.13069664890571428,0.0744819332249638
1.717763848699385e+18,0.31046842635500005,-0.11303789559699999,0.0539394145846
1.717763848899385e+18,0.60606665463,0.06666161537005,0.054826577985249994
1.717763849099385e+18,0.5355197235899999,0.0025327780715999997,0.08078997764054999
1.717763849299385e+18,0.2597843362805,-0.08534832587699999,0.06498597059155001
1.717763849499385e+18,-0.10265818303400001,-0.08360405620250001,-0.08317437980599998
1.717763849699385e+18,-0.0417977421406,0.011181887659799999,0.0026008873928999995
1.717763849899385e+18,-0.28307552114,0.0010262195484,-0.0010382296973999987
1.717763850099385e+18,-0.7067760498714286,0.06415875100557142,-0.08773580565714285
1.717763850299385e+18,-0.6081581622350001,0.025789180615589997,-0.027600060263299996
1.717763850499385e+18,-0.25978223092515,-0.025761856138149998,-0.05000584716900001
1.717763850699385e+18,0.148428455047705,0.019778620115094996,0.024650997714019997
1.717763850899385e+18,0.411384451385,-0.11020337570984999,-0.0031936119065000016
1.717763851099385e+18,0.546373720475,0.0743740952852,0.067377801262385
1.717763851299385e+18,0.541361434765,-0.11404986773204999,-0.06208678312475001
1.717763851499385e+18,0.2532286220845238,-0.15103962946666669,-0.05853920731523809
1.717763851699385e+18,-0.0100036731645,-0.05557197342485,-0.006149721506755001
1.717763851899385e+18,-0.05320010061445,0.05189059029800001,0.047657558903250005
1.717763852099385e+18,-0.22053277594899998,-0.033369926689900006,-0.052514011971999994
1.717763852299385e+18,-0.60127432346,-0.0029259247489500013,0.03821702944005
1.717763852499385e+18,-0.55212813318,0.133635662027,-0.0213714273645
1.717763852699385e+18,-0.32420555222400005,0.014749677875599995,0.00977935102215
1.717763852899385e+18,0.08441041801810001,0.034225066744,0.06766277420899999
1.717763853099385e+18,0.7712188774714286,-0.056967488562,0.13421974579095242
1.717763853299385e+18,0.526768793165,-0.0695486817505,-0.004222093196950004
1.717763853499385e+18,0.5795123606999999,-0.11353973639535,-0.013290876638100002
1.717763853699385e+18,0.2067079681101,0.019028703699394998,0.007225079273499998
1.717763853899385e+18,-0.023442811820615,0.001447086816050001,0.0023181394873500022
1.717763854099385e+18,-0.024616834746700005,0.149177078908,0.0739617797547
1.717763854299385e+18,-0.46751669794499995,-0.0172056576235,-0.035335403515500005
1.717763854499385e+18,-0.6002144870333334,0.1736718410915714,0.0356053182252381
1.717763854699385e+18,-0.6459730043999999,0.03151318654350001,-0.0147191786452
1.717763854899385e+18,-0.5355601327135149,-0.166273114182,-0.05259548416550001
1.717763855099385e+18,0.29125946089300003,-0.007688413806250002,-0.16099961269250002
1.717763855299385e+18,0.5286790534900001,-0.1873531896095,-0.10790809791415001
1.717763855499385e+18,0.6682224690899999,-0.060653592397449996,0.04562680116149999
1.717763855699385e+18,0.6609927326349999,-0.04448414169749999,-0.08611387985595
1.717763855899385e+18,0.2286275123709,0.245195389546,0.041280188433935
1.717763856099385e+18,0.04255518526709524,0.10215645265428572,0.024892920062999997
1.717763856299385e+18,-0.23930882644200002,-0.04208508101195,-0.08952783751250001
1.717763856499385e+18,-0.51872394681,-0.03142629881879,-0.05078825677419
1.717763856699385e+18,-0.478754359485,0.06779988046605001,0.048075620316149995
1.717763856899385e+18,-0.5034495711399999,0.0644245199273,-0.004093121574
1.717763857099385e+18,-0.5378606251755,0.09340023845610002,0.0868877284533
1.717763857299385e+18,0.37812454923445005,0.06146153367690001,-0.12872232380699997
1.717763857499385e+18,0.19174426485747617,0.27521819088190475,0.11039637198109525
1.717763857699385e+18,0.24476628564,-0.030698528422099997,0.12790442220750003
1.717763857899385e+18,0.102463912779,-0.17625536620549997,0.03398745885375
1.717763858099385e+18,0.019777330290699998,-0.102891759938,-0.014315970276000001
1.717763858299385e+18,-0.0074381947689280015,-0.06183405649,-0.0199775183573
1.717763858499385e+18,-0.012660462431950001,-0.029016240360099994,-0.013934179441699997
1.717763858699385e+18,-0.018262388114100005,-0.0003200836242799999,0.022522498353100003
1.717763858899385e+18,-0.01748652033295238,-0.014725194590490955,0.011349748165723811
1.717763859099385e+18,-0.0092972914863,-0.006927221792694,0.014513307763745004
1.717763859299385e+18,-0.006346907221799999,-0.018198908318329998,-0.015388038463899998
1.717763859499385e+18,-0.008144898259750002,-0.0020814730786999996,0.004808908439365001
1.717763859699385e+18,0.049599828724,-0.016898334619826,0.00831437435725
1.717763859899385e+18,0.010996477135999999,-0.010500550781935,0.0025158614152150003
1.717763860099385e+18,0.0141029688575,-0.0105941598299375,0.009561872663187502
1.717763860299385e+18,,,
