Timestamps,Gyro_X,Gyro_Y,Gyro_Z
1.7177635430666537e+18,0.0021011258882457145,0.02453233787069143,0.03627795326952381
1.7177635432666537e+18,0.006815080369,0.0814677488055,0.10614381917
1.7177635434666537e+18,-0.0033253641680949996,-0.009377540183685,0.03448796825198501
1.7177635436666537e+18,0.004908908429195001,-0.038565478474499995,-0.01148396083197
1.7177635438666537e+18,0.00898514416805,-0.022745815572000002,-0.000999512156905
1.7177635440666537e+18,-0.0012842901923700001,-0.020543992753,-0.008945728128655
1.7177635442666537e+18,-0.01612335275925,-0.0226623819665,-0.023827751632000002
1.7177635444666537e+18,-0.1276876562747619,-0.017083469423285716,-0.04852881202666666
1.7177635446666537e+18,-0.30372120888,0.03175782424015001,-0.1081876058155
1.7177635448666537e+18,-0.42676524668499993,0.1331998072585,-0.09152705786845002
1.7177635450666537e+18,-0.69594264031,-0.163016986845,-0.0957543641245
1.7177635452666537e+18,-0.4990659408399999,0.047267223710100004,0.024422389199800006
1.7177635454666537e+18,-0.0928628642055,-0.16582172977205,-0.05435906846280001
1.7177635456666537e+18,0.560961496825,0.029961720059449998,0.030236988508500002
1.7177635458666537e+18,0.5621763183952381,0.22791045562157144,0.11444047044819047
1.7177635460666537e+18,0.6483019381749999,-0.057694688439,0.041649887606900006
1.7177635462666537e+18,0.48625432700000004,-0.1580869076865,0.04034473125389
1.7177635464666537e+18,-0.25791267825445,-0.023382539394049995,-0.0722995413452
1.7177635466666537e+18,-0.7384860962550001,-0.08633517522234999,-0.11006381530250002
1.7177635468666537e+18,-0.59321029633,0.15273455083999998,0.06824320587063999
1.7177635470666537e+18,-0.6188848540149999,0.06832203912249998,0.052828280857349995
1.7177635472666537e+18,0.2578899881815,-0.2091953126675,-0.03223610049585
1.7177635474666537e+18,0.49489798999047613,0.14702988463904762,0.007804889852714284
1.7177635476666537e+18,0.522836950405,-0.3012982419637,-0.047436788706009994
1.7177635478666537e+18,0.4511868154619999,-0.22624115800135,0.027891787234199994
1.7177635480666537e+18,0.39142931802700004,0.13703124187604998,0.014853499492349997
1.7177635482666537e+18,-0.43892121240849996,-0.01233435605055,-0.0009479382545500027
1.7177635484666537e+18,-0.584709532555,-0.069636551661,-0.022457026864700004
1.7177635486666537e+18,-0.6301455765949999,0.277054161209,0.10416315428515
1.7177635488666537e+18,-0.4485920774095239,0.23373147569714287,0.12287319318376191
1.7177635490666537e+18,-0.012217605946500005,-0.13834579088124999,-0.02170146452505
1.7177635492666537e+18,0.506129826605,0.13147316229550002,0.04518616694126949
1.7177635494666537e+18,0.7966288089849999,-0.0330905307905,0.029081383025849998
1.7177635496666537e+18,0.53640234171,-0.04541970444945,0.028920533264409992
1.7177635498666537e+18,0.41430479363500006,-0.18063137135045,-0.21258133961915
1.7177635500666537e+18,-0.12055618155404998,-0.1114480209616,-0.040890056526700004
1.7177635502666537e+18,-0.39118342846700005,-0.022150930850999995,0.0175597574555
1.7177635504666537e+18,-0.6458288743333332,0.09420054343047618,0.025956389340074333
1.7177635506666537e+18,-0.4358743876199999,0.12306507824799998,0.06439750856849999
1.7177635508666537e+18,-0.28718837723,-0.09110634122399999,-0.0884835361474
1.7177635510666537e+18,0.17948929592050003,0.12169649377605003,0.042492426466
1.7177635512666537e+18,0.5908296614949999,0.12723103190495,0.1311739749285
1.7177635514666537e+18,0.281928931179,0.10454283518999996,0.11956216439984999
1.7177635516666537e+18,0.412169451826,-0.03649574405035,0.0903405472125
1.7177635518666537e+18,0.5896819531857143,-0.025471602199090476,-0.01318394991552381
1.7177635520666537e+18,-0.277889267913,0.02804088475585,-0.0106048372122
1.7177635522666537e+18,-0.56777120382,0.1097730901955,-0.011158548600100002
1.7177635524666537e+18,-0.8607349634149999,0.38458053024,-0.07187663744715002
1.7177635526666537e+18,-0.7085568517349999,0.05246126465315001,-0.13616774221349998
1.7177635528666537e+18,-0.14789375117124498,-0.11877383815604999,-0.1522983329325
1.7177635530666537e+18,0.504175945395,-0.07365208834180001,0.10138796092090001
1.7177635532666537e+18,0.7313559083809524,-0.048945054864333336,0.06077482627976189
1.7177635534666537e+18,0.62348919511,-0.063550565488,0.1165553659215
1.7177635536666537e+18,0.449389910685,-0.09171823109005002,0.0451606894578
1.7177635538666537e+18,0.30166536233400004,-0.08054587559615,0.05485651743849999
1.7177635540666537e+18,-0.8666553080049999,-0.06074032866171999,-0.0274823037883
1.7177635542666537e+18,-0.7811875224049999,0.07122789557055,-0.15354965925249997
1.7177635544666537e+18,-0.7031200438600002,0.06396971829650001,0.020379845215199997
1.7177635546666537e+18,0.015196055326400004,-0.085526450535,0.0359702922639
1.7177635548666537e+18,0.1318177481457143,0.021911565659095234,-0.03587650246371427
1.7177635550666537e+18,0.0172956665041,-0.045529090202,-0.017432677152700003
1.7177635552666537e+18,0.11443767973784998,0.14118643366449998,0.0858115546405
1.7177635554666537e+18,0.10918742605460001,0.20507344381,0.1466670156485
1.7177635556666537e+18,0.06464046384199999,0.004555327533800002,0.07205646848215001
1.7177635558666537e+18,0.097731750089,-0.185034331675,-0.0541333918455
1.7177635560666537e+18,0.12916912642400002,-0.25036005973000003,-0.12170134260900001
1.7177635562666537e+18,0.03612554722504762,-0.13450606751714286,-0.08540255629380951
1.7177635564666537e+18,0.01071724698385,0.0300264955147,0.0025639421534999996
1.7177635566666537e+18,0.0257334590596,-0.05875291500759999,-0.015118886844950002
1.7177635568666537e+18,0.0013251995260250002,-0.05231767576219999,-0.030530118825314995
1.7177635570666537e+18,-0.000440338090466,0.054874183982500005,0.018796969648400004
1.7177635572666537e+18,-0.007429371232580001,0.029228991782000002,0.014706815057899999
1.7177635574666537e+18,0.0011611595225899999,0.0034696286310675005,0.008401388569265
1.7177635576666537e+18,-0.00565074532056,-0.002323161997085,-0.0022262373705549997
1.7177635578666537e+18,-0.005007984825999999,-0.018127739518095237,-0.007490111747857144
1.7177635580666537e+18,0.0041299467034,0.0035854678720850007,-0.002167949825715
1.7177635582666537e+18,-0.00669504238735,0.011256095953099997,0.0030956597303950003
1.7177635584666537e+18,0.012552635321890002,-0.0017595414889000002,0.004892288974900001
1.7177635586666537e+18,0.020340802148,0.00424852422433,-0.0033354003913900004
1.7177635588666537e+18,0.01356734446301,0.00281347735999,-0.0032867255388099995
1.7177635590666537e+18,0.01083304879695,0.009153568022725,-0.0006070331668200002
1.7177635592666537e+18,-0.0009019758023809523,0.011552537481333334,-0.002384930837538095
1.7177635594666537e+18,-0.009503021789200001,-0.00015889107028000003,0.00270616973838
1.7177635596666537e+18,-0.010540745547400001,-0.0192394042972,0.004157110350625
1.7177635598666537e+18,-0.00850476949725,-0.012775518034774998,-0.0019684712291150003
1.7177635600666537e+18,-0.0314957831985,-0.028458002337154998,-0.00476162887665
1.7177635602666537e+18,-0.0053378902672999995,-0.00801773018893,0.007283708209044999
1.7177635604666537e+18,-0.006634261718084999,0.0009094847475400004,-0.00093596120143
1.7177635606666537e+18,-0.004165375569033333,0.009995692188238096,-0.0019385472682790475
1.7177635608666537e+18,0.0088293347984,-0.0030363054010200006,0.0007546829992499997
1.7177635610666537e+18,0.02192944590895,0.0191603400044,0.0017213312563900001
1.7177635612666537e+18,0.0247659880675,0.0053427576552649994,-0.00015729534213499994
1.7177635614666537e+18,0.010098077187650002,0.01120009839076,0.0038646848757699997
1.7177635616666537e+18,0.00722612971405,-0.0023211000600800004,-0.0009498358469400001
1.7177635618666537e+18,-0.005672799644765,-0.0038531964994300005,-0.002629106526839449
1.7177635620666537e+18,-0.017750888620299998,-0.00482930192939,-0.0013582131767399998
1.7177635622666537e+18,-0.02358676373380952,-0.009450212631209523,-0.004876231431229523
1.7177635624666537e+18,-0.013457375438649999,0.00241955711975,-0.007580429280519998
1.7177635626666537e+18,-0.0085752104993,0.01028508546322,-0.0009798915824200001
1.7177635628666537e+18,0.00859064281135,0.006612226122025,0.0022702526478349996
1.7177635630666537e+18,0.0187494489365,-0.0011173821287950002,-0.000754397828135
1.7177635632666537e+18,0.0197444355105,-0.007542143226275,-0.0030318543954400002
1.7177635634666537e+18,0.009438660740905,0.0005581211532850001,0.0002990128588419999
1.7177635636666537e+18,-0.0009221930299523813,0.0031211113981285715,-0.003057065685907619
1.7177635638666537e+18,-0.0099837783027,0.0017381607904149998,0.0013855672906815
1.7177635640666537e+18,-0.0152578885662,-0.0051229125821499995,-0.0018451619020900002
1.7177635642666537e+18,-0.0195553978449,-0.0034005065565380008,0.002297896135185
1.7177635644666537e+18,-0.008121468461389999,-0.00568344012138,0.002257166744675
1.7177635646666537e+18,-0.0033431570685830006,0.001782639708825,-0.0013932622269900003
1.7177635648666537e+18,0.0076752440939549995,-0.006723264371835,0.0035439083934029995
1.7177635650666537e+18,0.019992283661399997,-0.0022954026004620006,-0.00406837523945
1.7177635652666537e+18,0.02486902244809524,0.0019711771469619046,-0.002232230401495238
1.7177635654666537e+18,0.016047140070900003,0.00497184250292,-0.0013692585751559998
1.7177635656666537e+18,0.00751550527068,-0.00226937551053,-0.0006333853466750002
1.7177635658666537e+18,-0.00588614109441,0.00136419169138,-0.002153782895725
1.7177635660666537e+18,-0.010827510326100001,0.0012768202578064998,0.00041355265421699994
1.7177635662666537e+18,-0.01920562926655,0.0004514070107550001,-3.646934643000003e-05
1.7177635664666537e+18,-0.01145047209624,-0.0018581852200599998,-0.001729829469725
1.7177635666666537e+18,-0.01324780560347619,0.0053055740645666675,0.0012178245510857143
1.7177635668666537e+18,0.006764828583260001,-0.00041791184330999977,-4.252884699999619e-07
1.7177635670666537e+18,0.0159805541807,-0.0034272275749999996,0.0002637404657550001
1.7177635672666537e+18,0.018070759577499998,0.00048019752142500004,-0.0023759367410231503
1.7177635674666537e+18,0.01548624509,0.0031527744023549997,0.00034431716196
1.7177635676666537e+18,0.008575497305449998,0.00160928994889,-0.000317442777935
1.7177635678666537e+18,-0.0017688426015484999,-0.002023320098005,-0.00117825724868
1.7177635680666537e+18,-0.0006891472089399998,0.0026028074090549995,0.0011575768353250001
1.7177635682666537e+18,0.02992523932572857,0.016569313870695716,-0.016892079208142858
1.7177635684666537e+18,-0.059432565514500005,0.02370846068935,0.01911745797805
1.7177635686666537e+18,-0.0006869460106,-0.025451277243400006,-0.004009030025845
1.7177635688666537e+18,-0.022485541790450002,0.006730496545549999,-0.0011995519393449999
1.7177635690666537e+18,0.006119299588904999,-0.006994111312029999,0.0037475336575749996
1.7177635692666537e+18,0.02035056690125,-0.007200963119700002,0.0005072160041850002
1.7177635694666537e+18,0.019266953504499997,0.0029287499259200004,-0.0019176947477482498
1.7177635696666537e+18,0.015433494756238094,0.002047412042097143,0.0010961789050365667
1.7177635698666537e+18,-0.00769293557584,0.0018893813950535004,0.001846578647205
1.7177635700666537e+18,-0.008462842065100002,-0.0009067415259934999,-0.0026041864416
1.7177635702666537e+18,-0.011418441962349998,0.0019855716382299994,0.0019636351731800003
1.7177635704666537e+18,-0.016527528268,-0.0031166444415999996,0.000178675184765
1.7177635706666537e+18,-0.0154826419429,-0.0040491570021300004,0.0004379404651099998
1.7177635708666537e+18,-0.012140815504310001,0.0006850709789850001,0.0019235394662399999
1.7177635710666537e+18,-0.002788160833377143,-0.00222579450782381,0.0025744396595476188
1.7177635712666537e+18,0.012287943990799998,-0.0008793105953249999,-0.0008414128912049999
1.7177635714666537e+18,0.020976392318500004,-0.001166378101312,-0.00013337435668349997
1.7177635716666537e+18,0.022665685601999996,-0.0004932437208205,-0.000245955295249
1.7177635718666537e+18,0.016592206199999997,0.0034501801828615,-0.0024386575911405
1.7177635720666537e+18,-0.00241572054549,0.0015115213110425002,-0.00061107059002
1.7177635722666537e+18,-0.002737084816855,0.0049349163892999995,0.000217135704545
1.7177635724666537e+18,-0.012641119799549998,-0.00410140608436,0.0033274506451810002
1.7177635726666537e+18,-0.018858714804999996,-0.015577457922761908,-0.0042686670395380944
1.7177635728666537e+18,-0.010281669147129998,-0.0018412383737299997,-0.003964015911330001
1.7177635730666537e+18,-0.01235853268175,0.00016939924104999996,0.0025011145162000003
1.7177635732666537e+18,-0.009164086706250001,0.0032867293106935,0.003307294426509999
1.7177635734666537e+18,-0.00238792335175,0.0019384226531449996,-0.0028214687713699997
1.7177635736666537e+18,0.016317122778750002,0.0016884018783199998,0.00073249727727
1.7177635738666537e+18,0.023165310919999998,0.000664906180386,0.00016700222619099996
1.7177635740666537e+18,0.017883982997190476,-0.0033670357493095237,0.0016561218459285713
1.7177635742666537e+18,0.0157554615285,0.0036619535067450005,-0.0020492882060050006
1.7177635744666537e+18,-0.08506299034155,-0.13006107632754998,0.04939345479716001
1.7177635746666537e+18,-0.260391672695,-0.0033076224350000044,-0.0909364708816
1.7177635748666537e+18,-0.03679619352885,0.088999086622,-0.03862291704950001
1.7177635750666537e+18,-0.00828179483055,0.0646060742435,-0.0237332143821
1.7177635752666537e+18,-0.014953574584496,-0.016753540188145,0.03924244302279999
1.7177635754666537e+18,-0.08790448839000001,-0.011824541305949999,0.019998866180499997
1.7177635756666537e+18,-0.007911447396904761,-0.011518584585866668,-0.006028554070090476
1.7177635758666537e+18,-0.0260588449421,-0.013203276088300001,-0.026139102235053502
1.7177635760666537e+18,0.017703963770099997,-0.019669211306049997,0.009084711048700001
1.7177635762666537e+18,0.00958123429445,-0.030335454735999995,0.01762101718907
1.7177635764666537e+18,0.0117167772963,-0.012230265874449999,-0.01129602502375
1.7177635766666537e+18,0.02224489012785,0.004229726572970001,-0.0059275464273935005
1.7177635768666537e+18,0.02339936804725,-0.022327676275000003,-0.008891252422150001
1.7177635770666537e+18,0.0340839522852381,-0.020923622839666662,-0.01735132107852381
1.7177635772666537e+18,0.017246946832799998,0.005033290630749999,-0.034974723868000004
1.7177635774666537e+18,0.00242380105793,0.07036091815750001,-0.027784066042
1.7177635776666537e+18,0.011474322932325,0.06029890273880001,-0.00093875224695
1.7177635778666537e+18,-0.006228755099504501,-0.030051840515,0.0032777895919899997
1.7177635780666537e+18,-0.00797579134264,0.0023543200922000003,0.01753174499645
1.7177635782666537e+18,-0.019420983619080002,0.059038674073849995,0.0141221237944
1.7177635784666537e+18,0.001421780940714285,0.03400783932628572,-0.016785122986509523
1.7177635786666537e+18,0.002096738430345,0.13604570814550002,-0.043200659564900004
1.7177635788666537e+18,0.00916177409285,0.008729027980075,0.023911473574999998
1.7177635790666537e+18,0.00452809683005,-0.0351170474675,0.01547213695055
1.7177635792666537e+18,0.0034145283221750007,-0.0034714632432649994,0.0030427402582299994
1.7177635794666537e+18,0.015457942899954998,-0.007663580193465,0.013383397332519998
1.7177635796666537e+18,0.0141719250135,-0.020283474587700003,-0.002003243339359
1.7177635798666537e+18,0.07737712310999999,-0.068856944236,0.0508219798095
1.7177635800666537e+18,0.03824654682809524,-0.03961231807904762,0.025185142510952385
1.7177635802666537e+18,0.0491214094685,-0.02766032165445,-0.0148196768828
1.7177635804666537e+18,0.028474988765500003,-0.0254075563505,-0.003992707585320001
1.7177635806666537e+18,0.01921924836945,-0.007391380018397451,0.0016238963697849998
1.7177635808666537e+18,0.0284335839575,-0.0057797894465599995,0.004540496098390001
1.7177635810666537e+18,0.0367931488905,-0.00059745012565,-0.0030901432614500006
1.7177635812666537e+18,0.01921305002105,0.006937448738965001,0.0008954170741865
1.7177635814666537e+18,0.010369247877903335,-0.006370875845571429,0.0032517195209219043
1.7177635816666537e+18,-0.0060493384311,0.00052742705446,0.0008510544197200001
1.7177635818666537e+18,-0.0034886069624924998,0.0035367236356050012,0.004615610436275
1.7177635820666537e+18,-0.007870779838325001,-0.003282807639165001,0.0012324362644099997
1.7177635822666537e+18,-0.00942993762455,-0.00142043733504,0.0011060278745699998
1.7177635824666537e+18,-0.005946880442185001,-0.008494683750725,0.0026026996317335
1.7177635826666537e+18,-0.0021985400059500006,0.00423344550659,0.0027805129998500007
1.7177635828666537e+18,-0.25332206780550004,0.002435744847,0.004944293276679998
1.7177635830666537e+18,-0.011217636091857143,0.03487756178591904,-0.042501281282428575
1.7177635832666537e+18,0.054314585308709994,0.0329570876655,-0.0054070377021900005
1.7177635834666537e+18,0.03512943396405001,-0.041041731217905,0.0050595403416499995
1.7177635836666537e+18,-0.03062540676895,-0.03228309946155,0.00784063602226
1.7177635838666537e+18,-0.02682839024145,0.0103573770258,0.022481362068019997
1.7177635840666537e+18,-0.03887311346,0.07652647131599999,-0.0014156821418499998
1.7177635842666537e+18,0.0034396620695500008,0.018587248725850002,-0.004284607002519999
1.7177635844666537e+18,0.0021294227671,-0.055445456522857144,-0.00553285512352381
1.7177635846666537e+18,-0.07468701116085,0.0569952576152,0.027314351004650007
1.7177635848666537e+18,0.0546195854482,0.21809791028850004,0.05856153038315
1.7177635850666537e+18,0.41091361493,0.10694457087734999,0.17119198650799997
1.7177635852666537e+18,0.652306766825,0.08010767828447,-0.07920333477569999
1.7177635854666537e+18,0.7877439320049999,-0.2645125784,0.0716983767275
1.7177635856666537e+18,0.159696959509,-0.09591779615700001,0.005884080159539999
1.7177635858666537e+18,-0.5022321510238095,0.12330487573957141,0.004791291875238095
1.7177635860666537e+18,-0.9908852636899999,-0.09878411758675,0.07111043585445001
1.7177635862666537e+18,-0.551964771745,-0.23904345593000004,0.005022880181740001
1.7177635864666537e+18,-0.10054026441420001,0.143431012422,-0.0429257642015
1.7177635866666537e+18,0.110597068824,0.06293227756349999,-0.018172572926000004
1.7177635868666537e+18,0.548467050485,0.26358305243650004,0.18533449825415
1.7177635870666537e+18,0.75490712225,-0.05088527826605001,0.04390487311248001
1.7177635872666537e+18,0.6518148914299999,0.0199925790184,0.05423989665024501
1.7177635874666537e+18,-0.023414330196666673,0.05763018777476191,-0.04662968684285714
1.7177635876666537e+18,-0.5296400248900001,0.023208863329900003,-0.0716057543555
1.7177635878666537e+18,-1.130564498975,0.1517987366795,-0.151213754336
1.7177635880666537e+18,-0.752980241195,-0.145407957913,-0.168285543468
1.7177635882666537e+18,0.21833857224000003,-0.13186575487000002,-0.026104955082679997
1.7177635884666537e+18,0.0451643113955,0.0974236348871,0.10759510556115
1.7177635886666537e+18,0.4171767041100001,0.2953259135575,0.13232681840075003
1.7177635888666537e+18,0.4124382922476191,0.0929218485809524,0.16051571491709526
1.7177635890666537e+18,0.617148201165,-0.050867479615750014,0.06423244592045
1.7177635892666537e+18,0.71313658058,0.0790828570725,0.082034756488565
1.7177635894666537e+18,0.267693050201,-0.053122474824499985,0.07007073583149999
1.7177635896666537e+18,-0.6506082892399998,-0.10951006342210001,-0.1711450971625
1.7177635898666537e+18,-1.11036356095,0.11144932862649999,-0.172734994714
1.7177635900666537e+18,-0.638476711515,-0.17739087036275,-0.16936314273849998
1.7177635902666537e+18,-0.177075447424,-0.14223182132657,-0.013021621536014999
1.7177635904666537e+18,0.1759238739775714,0.02619750535690475,0.16142674285999997
1.7177635906666537e+18,0.6148346006850001,-0.4290494361865,0.05942223791784999
1.7177635908666537e+18,0.5983675241449998,0.05698330551849999,0.02873675259545
1.7177635910666537e+18,0.7248003065699999,-0.12838581361691997,-0.013450560344000004
1.7177635912666537e+18,0.56793745608,-0.07566449665299999,-0.12450647460515
1.7177635914666537e+18,-0.17981183067,-0.1786529660145,-0.198438223077
1.7177635916666537e+18,-0.79894991815,-0.023208726569400002,-0.07161629064109999
1.7177635918666537e+18,-1.1695072224714285,0.13540491442419048,0.1545668194747619
1.7177635920666537e+18,-0.5736349169099999,-0.045748932368999996,0.089171263019
1.7177635922666537e+18,0.058606411329749995,-0.0998542143035,-0.005116163565000001
1.7177635924666537e+18,0.5968712493749999,-0.12573187126750002,0.015718714474549998
1.7177635926666537e+18,0.60749260783,0.21367180160600002,-0.005638476321700001
1.7177635928666537e+18,0.43190119193000004,-0.25836529005549996,0.008548620158500001
1.7177635930666537e+18,0.371482732895,-0.01285114585105,0.005973828798000001
1.7177635932666537e+18,0.5028264323761905,0.059655864243809524,0.06770008970123809
1.7177635934666537e+18,0.016859634775500003,0.048296318642795,0.05593408277624999
1.7177635936666537e+18,-0.54709315449,-0.03413213971065,-0.12664513606599997
1.7177635938666537e+18,-0.99078606959,0.11041679814374998,-0.12962746708055
1.7177635940666537e+18,-0.6663290769,0.24654529214569995,-0.06489345264065001
1.7177635942666537e+18,-0.3271772447965,-0.02258144868824999,0.14185002073849998
1.7177635944666537e+18,0.34807779105039993,0.28609545714499995,0.032749213520699996
1.7177635946666537e+18,0.1480599375,-0.06861646301194999,-0.006608380516550003
1.7177635948666537e+18,0.16309916370285718,-0.09726488039909523,0.1011383396400476
1.7177635950666537e+18,0.0564064398405,-0.20175759345999994,-0.023018859419200004
1.7177635952666537e+18,0.01805693099934,-0.07822786159100001,-0.0258743699405
1.7177635954666537e+18,-0.006157965050250001,0.00834085958761,-0.0035532885815
1.7177635956666537e+18,-0.015556691808700002,-0.038349840184850006,-0.02619351072985
1.7177635958666537e+18,-0.02216090811435,-0.0321579601605,0.0009681150841549999
1.7177635960666537e+18,-0.010024636436110002,-0.0645459732973,0.0012895098415014992
1.7177635962666537e+18,-0.0077794568917619045,0.005470071675561905,0.0017497103128957141
1.7177635964666537e+18,-0.01288088967022,0.012014248513945,-0.005538911919489999
1.7177635966666537e+18,-0.0028912853329500004,-0.003843794221445,0.00229211275
1.7177635968666537e+18,0.029878577217,-0.01271932213565,-0.001445913047175
1.7177635970666537e+18,0.016132198146299997,-0.01296900443315,-0.00327562860885
1.7177635972666537e+18,0.015507483877699998,-0.008062595327545,-0.002304375823575
1.7177635974666537e+18,0.013671982288549999,0.001148473727255,-0.0013864472392995
1.7177635976666537e+18,-0.004089507480385,-0.0042460862665250005,-0.0012065138899499997
1.7177635978666537e+18,-0.011338082308785715,0.003997926423380952,0.0034973609282523813
1.7177635980666537e+18,-0.006860102725304999,-0.002770539233206,-0.0012925672811499999
1.7177635982666537e+18,-0.0037936700276254994,0.005911057944224999,0.014840292628099999
1.7177635984666537e+18,-0.016520164115000003,-0.005964684649969998,-0.04555540355
1.7177635986666537e+18,-0.00013446572655000048,0.045825599320499996,-0.039972952473200006
1.7177635988666537e+18,-0.00753579576817,0.03603000498725,0.014412462699749998
1.7177635990666537e+18,0.01951539784245,0.0046618488850200005,0.0013112758867550001
1.7177635992666537e+18,0.026052424594761908,0.014602089300571431,-0.0006771722720161905
1.7177635994666537e+18,0.013538273436555,-0.010165490606285,0.004275319678512
1.7177635996666537e+18,0.0093659539481,-0.0078488430475,0.0032804062591900002
1.7177635998666537e+18,0.034716103043000004,0.005640734161630001,-0.010561707906432499
1.7177636000666537e+18,0.0434357314854,0.014640412724325003,-0.005128700716250002
1.7177636002666537e+18,-0.03950871102345,0.00527260078829,-0.00169401840536
1.7177636004666537e+18,-0.030926210479100002,0.00533121142035,-0.005620678409415001
1.7177636006666537e+18,-0.010043368664381,0.0031109484490200014,-0.00756644868004
1.7177636008666537e+18,-0.015162633511571428,-0.022704355962785718,0.013536362809433333
1.7177636010666537e+18,0.029274562280400002,-0.01799299316466,0.021909864224300003
1.7177636012666537e+18,-0.0062602712484000015,-0.0064566962426999995,-0.0014081300585749997
1.7177636014666537e+18,-0.0047833304038,0.00370020068976,-0.00471304492129
1.7177636016666537e+18,0.00025582875233,-0.0015768223676899998,0.00036224812470999994
1.7177636018666537e+18,-0.011957016202820001,-0.0014643652246499998,0.0029355653793959996
1.7177636020666537e+18,-0.0209671217484,-0.011075946582789998,-0.00434212933762
1.7177636022666537e+18,-0.017475662131904764,0.001063517937902667,0.002019984858347619
1.7177636024666537e+18,-7.558505739999992e-05,-0.007911415071954999,0.009445287235215
1.7177636026666537e+18,0.02252640756756,-0.0172759749921,-0.0003359111956999998
1.7177636028666537e+18,0.020178830343999997,-0.007966369344250001,-0.00374049048965
1.7177636030666537e+18,0.01727003865,0.0011763853138105,-0.0050071776032450015
1.7177636032666537e+18,-0.002229007234414,0.0028949102035599997,0.001085254072645
1.7177636034666537e+18,0.002195375860605,-0.007676238694704999,-0.003587402740965
1.7177636036666537e+18,-0.009920787986476193,0.0004141592490476191,-0.0019890471872285715
1.7177636038666537e+18,-0.0078996508148,0.0051236468712700005,-0.0006078080273449999
1.7177636040666537e+18,-0.01900680489455,0.0030921805071683498,-0.003799946419876501
1.7177636042666537e+18,-0.0106713777411,0.00557759370469,0.004171172622485
1.7177636044666537e+18,-0.006371932598900001,-0.004873100365375,0.002716986776595
1.7177636046666537e+18,0.012763982388724998,-0.0032577780656199997,-0.00034663293047
1.7177636048666537e+18,0.023124522064,-0.004828850697925,-0.00024743539992
1.7177636050666537e+18,0.020849522762099996,-0.004917859752389,-0.0018200677121689996
1.7177636052666537e+18,0.00601926949890476,0.009927368145809527,-0.008456586904666667
1.7177636054666537e+18,-0.01167837743998,0.019327037128799997,0.006511624238814999
1.7177636056666537e+18,0.009489743504349998,-0.022835311181479995,0.0032558939424499993
1.7177636058666537e+18,-0.026948971871900002,0.05745790209600001,-0.03891024867640001
1.7177636060666537e+18,-0.00179524217385,0.01790990922595,0.0333057336737
1.7177636062666537e+18,-0.0256803407574,0.0032785878056000002,0.011271454487050001
1.7177636064666537e+18,-0.004437776957350002,-0.021510713873749997,-0.0241440497805
1.7177636066666537e+18,0.018747764528747622,-0.00941867071947619,0.014954663885095238
1.7177636068666537e+18,0.018599133519500002,-0.018760224490090002,-0.0123726635953
1.7177636070666537e+18,0.027338076383,0.009173652669299998,0.01041221510415
1.7177636072666537e+18,0.012207515447359997,0.007783546427085,-0.00879874010595
1.7177636074666537e+18,-0.01961541275995,-0.0024599290330499994,0.00317831542889
1.7177636076666537e+18,-0.020479417265999996,-0.02281447998255,0.023548031086349997
1.7177636078666537e+18,-0.036611900477999997,-0.11310135107400002,-0.058480055672849994
1.7177636080666537e+18,-0.01997076328855,0.12476314329555001,-0.02062879941200001
1.7177636082666537e+18,-0.02014910187433333,-0.11388786670333333,0.04830656063411905
1.7177636084666537e+18,0.00721596933455,-0.03724340311925,-0.08257604706749999
1.7177636086666537e+18,0.029679877288499995,0.1484120287055,-0.04139878759190001
1.7177636088666537e+18,0.02504134037322,-0.005754746776,0.10545472605549999
1.7177636090666537e+18,0.004000068456095,-0.007324653551099998,0.010352477255945
1.7177636092666537e+18,0.014319784438985,0.03646240797835,-0.00456339944054
1.7177636094666537e+18,-0.0008561739350500001,-0.0211015004319,-0.03303207537359
1.7177636096666537e+18,-0.002883856656036667,0.007810477244757144,0.01536761259761905
1.7177636098666537e+18,-0.0040706723411,-0.01902540451955,0.00719630337605
1.7177636100666537e+18,0.0006755563597799991,0.0034538611651889995,-0.006723315868220001
1.7177636102666537e+18,0.02166007829336,0.0204550256027,-0.046602390708819996
1.7177636104666537e+18,0.013461568864179995,0.06619494112855001,0.013787675019359999
1.7177636106666537e+18,-0.010785715549449999,-0.0353363152596,0.010860261146699999
1.7177636108666537e+18,-0.009327791046465,0.0018563392797500001,-0.012898999895500002
1.7177636110666537e+18,-0.017474161460952382,-2.2318501852380838e-05,0.005497856231566667
1.7177636112666537e+18,-0.024913138058499998,-0.01507971319315,-0.0008549144957300001
1.7177636114666537e+18,-0.009963472386154998,-0.00884091089225,0.0006403252713350001
1.7177636116666537e+18,0.017647932895500002,-0.013510696287,0.00025952606227
1.7177636118666537e+18,0.01882372824465,0.0021013001447100004,0.00579751901125
1.7177636120666537e+18,0.01945651988495,-8.613639532000037e-06,0.005696571338995001
1.7177636122666537e+18,0.0175725753425,0.0005783625412949999,0.001611540070795
1.7177636124666537e+18,0.0011132382674000007,-0.00264119061223,-5.9943297060000024e-05
1.7177636126666537e+18,-0.007190141827571429,-0.0023978302317428568,0.0016187734158952375
1.7177636128666537e+18,-0.00971325424,-0.0001588400337200001,0.002844758122185
1.7177636130666537e+18,-0.017313285079499998,-0.0012778725941349999,0.0020641158859285
1.7177636132666537e+18,-0.01172979358815,-0.010920688068199997,0.005873271404580001
1.7177636134666537e+18,-0.00785184374575,-0.00509125438953,-5.9894123239999985e-05
1.7177636136666537e+18,-0.003902169229865,0.0080115801426,0.006254537287155
1.7177636138666537e+18,-0.00577151059415,8.605705799899994e-05,0.0016440787471599997
1.7177636140666537e+18,-4.551094304142894e-05,-0.0022710583151952382,-0.0021861729966052386
1.7177636142666537e+18,0.0170734937765,0.00041906792912100004,0.0012338299362299999
1.7177636144666537e+18,0.01138027551932,0.0025143557696899995,0.0008195349541500002
1.7177636146666537e+18,0.01981276525115,-0.008778660522900002,-0.0002551763551855002
1.7177636148666537e+18,0.013950061948849998,-0.00101636515472,-0.0016801202204644997
1.7177636150666537e+18,-0.006497906136945,-0.0032030220142995,0.0029480582802049998
1.7177636152666537e+18,-0.012949358491099999,-0.00586560418568,0.0013515024678999996
1.7177636154666537e+18,-0.015447461372999998,0.0023904721368550002,-0.0006609680421499999
1.7177636156666537e+18,-0.01263548118904762,0.0003312369031380953,0.000734778243061905
1.7177636158666537e+18,-0.0134796135706,0.004142956179515,-0.0035105044022570005
1.7177636160666537e+18,-0.006198002264145,0.0020219349418580004,0.0006389048587849997
1.7177636162666537e+18,0.00012394596697499997,-0.00113234227758,0.00148919387725
1.7177636164666537e+18,0.009966669575048501,-0.0029508757171500003,-0.001092509226856
1.7177636166666537e+18,0.017468365641965,0.0004255272799549998,0.0020382074872049996
1.7177636168666537e+18,0.017301444848,-0.00221453853885,-0.000395865121351
1.7177636170666537e+18,0.017797122133333333,-0.0015494500875190477,0.0013892862925033332
1.7177636172666537e+18,0.006591111003049999,-0.009341934532445,0.005245948163549999
1.7177636174666537e+18,-0.005631643303180001,-0.0029929159905929996,-0.004747452528439999
1.7177636176666537e+18,-0.006125213130199999,0.0014151370619349998,0.0009866970591250002
1.7177636178666537e+18,-0.006826944905,6.349788750000028e-05,0.0038590048906450005
1.7177636180666537e+18,-0.01127286165691,-0.005786026036349999,-0.001954162993965
1.7177636182666537e+18,-0.01186296902625,-0.0016558363102444997,0.002039927360605
1.7177636184666537e+18,-0.009562023053100001,0.0007293815841454998,0.00138876741393
1.7177636186666537e+18,-0.005132130363817047,2.9386004019047292e-06,0.008004960981190476
1.7177636188666537e+18,0.007951495685789999,-0.007288443250705,-0.0017261839703749996
1.7177636190666537e+18,0.0196216146455,0.0025904593756950005,-0.003461672680049
1.7177636192666537e+18,0.018849132116999998,-0.0018207956687500003,-0.00102505103574755
1.7177636194666537e+18,0.011356209841714999,-0.00232757256591,-0.0019013305194485006
1.7177636196666537e+18,0.011168518430099998,-0.004305857955541,-0.0008076125639619999
1.7177636198666537e+18,-0.0016982100789000002,0.0008535231811999999,-0.003048013092564
1.7177636200666537e+18,-0.009278880155322857,0.005224007652901428,-0.0002471550611290474
1.7177636202666537e+18,-0.0077944249498899994,-0.0010453576920099999,0.0005598218646225001
1.7177636204666537e+18,-0.010417707823849999,-0.0008557975175299999,-0.001637101394535
1.7177636206666537e+18,-0.013576455228600001,0.00024324102562,0.0007406282296050001
1.7177636208666537e+18,-0.011412119175299999,0.0015466227896325001,0.0037053831621450006
1.7177636210666537e+18,-0.01072519856975,0.001714311225835,9.743471168000001e-05
1.7177636212666537e+18,-0.00825249727355,0.0028495320584950006,0.00071377434648
1.7177636214666537e+18,0.008251901582000001,0.0008193635100666672,0.001110894317190476
1.7177636216666537e+18,0.019625790090500004,-0.005887355713654999,-0.0014856747991500003
1.7177636218666537e+18,0.0293656315645,0.0383629262325,-0.0194747209899
1.7177636220666537e+18,0.018685937603449995,0.0969504255875,0.0037968648126999994
1.7177636222666537e+18,0.01386949010145,-0.0211480127646,-0.03605628623645
1.7177636224666537e+18,0.003525528310615,-0.021539710298500003,0.01164347339705
1.7177636226666537e+18,-0.2899208561658,-0.1111631287215,0.009826680902250001
1.7177636228666537e+18,0.010595956027150003,-0.09719759766550001,0.021289116982599998
1.7177636230666537e+18,-0.007243660156180953,-0.006479858953419048,0.04696160077061905
1.7177636232666537e+18,-0.017632991075075002,0.017088745173085,0.007246417308125
1.7177636234666537e+18,0.01592933509895,-0.0021799130714295007,-0.0059777660413250005
1.7177636236666537e+18,0.04521985239949999,0.0877835158735,0.02025973807425
1.7177636238666537e+18,-0.015751225362299996,0.00197608688645,-0.019640811253700003
1.7177636240666537e+18,0.020332199078999993,0.0356852532363,0.03033101551687
1.7177636242666537e+18,-0.09811369032150001,0.06525290808749999,-0.016060007174800002
1.7177636244666537e+18,-0.22924866814904762,0.004374064500476187,0.08456393846314285
1.7177636246666537e+18,-0.05804945491549999,-0.0186227892555,0.0331605687246
1.7177636248666537e+18,0.4160447657,-0.6439777858255,-0.5092779884677999
1.7177636250666537e+18,0.8314572647449999,0.14602415263599997,-0.04320697960545
1.7177636252666537e+18,0.9707251727999999,-0.1296693009205,-0.030362418671949998
1.7177636254666537e+18,-0.78443794545,0.24106039189069,0.010218432887400009
1.7177636256666537e+18,-1.2598309696499999,0.5653567373699999,-0.0384609820255
1.7177636258666537e+18,-0.7636210575399999,0.0052695478797000015,-0.0884961940275
1.7177636260666537e+18,-0.0030923149774290445,0.028631849264761904,0.05118705146302428
1.7177636262666537e+18,0.4061884926118,-0.36679156738700003,0.004674050492000005
1.7177636264666537e+18,0.8819061785950002,0.23768090801000002,0.077546930975485
1.7177636266666537e+18,0.819480897505,-0.172216820536,0.0025963461964499993
1.7177636268666537e+18,-0.26859612613850004,0.0802636002714,0.09500375515935001
1.7177636270666537e+18,-0.8056178241899999,0.05648020291450001,0.0007520361877499986
1.7177636272666537e+18,-0.8753522112800001,0.20603114282399998,-0.020446523814099997
1.7177636274666537e+18,-0.16620654623880948,0.038787541461476185,-0.030396583201904765
1.7177636276666537e+18,0.2922455474775,0.1034427605985,0.03491628094285
1.7177636278666537e+18,0.41702600494000003,-0.12438911353125,-0.10077292360350001
1.7177636280666537e+18,0.755184824795,-0.02384091368735,0.059228840935000006
1.7177636282666537e+18,0.8260921686949999,0.032553333863385006,0.05737213194699999
1.7177636284666537e+18,-0.1680172495525,-0.09389241579455,0.022820999289
1.7177636286666537e+18,-0.804918806255,0.06987456552163498,0.007628881650999999
1.7177636288666537e+18,-1.1166560308999998,0.22587331703809527,-0.0019921575252380935
1.7177636290666537e+18,-0.252392049603,0.044532190772,-0.01722641634035
1.7177636292666537e+18,0.09711582413245,0.0326190390632,-0.010264162241195002
1.7177636294666537e+18,0.426495213805,0.0529667074147,0.149868936839
1.7177636296666537e+18,0.6696639441,-0.14288761704519998,0.054991839869650005
1.7177636298666537e+18,0.69620144813,-0.1739662233705,-0.03242423606805
1.7177636300666537e+18,0.321069468839,0.02361036227715,0.01550985765765
1.7177636302666537e+18,-0.63006830215,0.1825052048995,0.02445739027895
1.7177636304666537e+18,-0.7585562921619048,0.06160704555418571,-0.12965458312
1.7177636306666537e+18,-0.760990503425,-0.0869647264455,-0.25743346326
1.7177636308666537e+18,0.08639952028299999,0.07451299270965,0.058485287272849996
1.7177636310666537e+18,0.209726918489,0.012987576097650005,0.025787665696999994
1.7177636312666537e+18,0.616986929625,-0.10118284710649998,-0.18672425080835
1.7177636314666537e+18,0.6189534619550001,-0.00036193462980000057,-0.07582344389659999
1.7177636316666537e+18,0.5348123207800001,-0.04933197852200001,0.0069191756115000004
1.7177636318666537e+18,0.3980217717952381,-0.09214940871426666,0.07445082973190476
1.7177636320666537e+18,-0.1926499391897,-0.0699636790465,-0.0977727235109
1.7177636322666537e+18,-0.7362468287400001,0.027305163400349997,-0.004330741242000001
1.7177636324666537e+18,-0.786580726515,0.023142994194200007,-0.0010603428360999984
1.7177636326666537e+18,-0.04922999437000001,-0.006542419146365007,-0.047827124036499996
1.7177636328666537e+18,0.09769811201850001,0.019540922274200002,0.2500058881955
1.7177636330666537e+18,0.21071405355,-0.11851572943184999,0.10229174085745
1.7177636332666537e+18,0.11465894696799998,0.016297516132,0.07973762774500001
1.7177636334666537e+18,0.03414485588588952,0.05464466741095236,0.05959051732352379
1.7177636336666537e+18,-0.0003433563638500003,0.008443584921745,0.022801551071554998
1.7177636338666537e+18,0.007283177936549999,-0.057670589908999995,0.011746012139450002
1.7177636340666537e+18,0.028713257704,-0.0010694988303700005,0.0033769198108750008
1.7177636342666537e+18,0.027739775465764706,0.010232901845544118,-0.002050599575847059
1.7177636344666537e+18,,,
