Timestamps,Acc_X,Acc_Y,Acc_Z
1.7178483627768934e+18,0.2521470860042857,1.9439860316666664,9.642804826380951
1.7178483629768934e+18,0.23912773132260004,1.9640207977499997,9.73365126775
1.7178483631768934e+18,0.008607101454249996,0.13428575129000006,10.18430413055
1.7178483633768934e+18,-0.512803619475,-1.7062717895630002,8.908776604100002
1.7178483635768934e+18,0.92489666745,-0.5263729019055001,10.94260473675
1.7178483637768934e+18,3.6069443207,2.3921380233650003,8.901149963349999
1.7178483639768934e+18,7.045181968750001,3.9078860092,6.9628382033500005
1.7178483641768934e+18,4.6837226487,6.99966911315,4.66223483277
1.7178483643768934e+18,0.6324348449900001,9.15618960575,1.5618595961050001
1.7178483645768934e+18,0.2206935653841,10.04477179025,1.1090287628030002
1.7178483647768934e+18,-1.054878868144,9.0055877838,-0.33196467592100004
1.7178483649768934e+18,-0.623925041153,10.034705223000001,-0.49505053713
1.7178483651768934e+18,-0.6032829666039998,10.277560203350001,-0.271161117553
1.7178483653768934e+18,-1.2202849044145,9.6990432357,-0.7085440750673999
1.7178483655768934e+18,-2.1218525849,8.330588950949998,-2.4421789627
1.7178483657768934e+18,-0.7149956588209498,10.454739258650001,-1.2626617813685002
1.7178483659768934e+18,-1.2574151915849998,8.7046835172,-2.9907581863000003
1.7178483661768934e+18,-1.3004656678299997,10.1919906466,-1.66342339329
1.7178483663768934e+18,-0.7839347992319999,9.3453063352,-1.33851654045
1.7178483665768934e+18,-0.07899822237049998,9.830716917950001,-0.8679925002949999
1.7178483667768934e+18,-0.14375356292250002,9.9510591656,0.23439008333850003
1.7178483669768934e+18,-0.34394725793500003,9.0748936611,2.4190745086635
1.7178483671768934e+18,0.8635093231525002,8.4855616837,3.6198325196
1.7178483673768934e+18,0.27315946197149993,7.99568289185,5.6374867859
1.7178483675768934e+18,0.4934264144954,7.4679627916,7.578193565350001
1.7178483677768934e+18,0.9115294647225001,5.126322257899999,8.36464313505
1.7178483679768934e+18,1.01411862945,1.4690825271099999,9.8316898961
1.7178483681768934e+18,0.8290734328899999,1.009208839389,9.70517298875
1.7178483683768934e+18,-0.4581298141484999,1.395600334145,9.759450118699998
1.7178483685768934e+18,-0.2642529830875,2.2918316116,9.646921623050002
1.7178483687768934e+18,0.04863386529850004,1.9467691725499996,9.9920065157
1.7178483689768934e+18,2.096383049,2.1134475632000003,9.239925476100002
1.7178483691768934e+18,2.26553130335,2.9637693100000004,8.96459552755
1.7178483693768934e+18,1.5632666702265001,2.698109253,9.99665435015
1.7178483695768934e+18,0.42404569244,2.6791436919999994,9.29569200895
1.7178483697768934e+18,0.3454174150762857,2.3523083496666666,9.465844247095236
1.7178483699768934e+18,0.149089965808,1.8803522873000003,9.15922080235
1.7178483701768934e+18,0.664213760421,2.5290957183500007,7.833315536549999
1.7178483703768934e+18,0.48334487919,3.04284986115,8.703845260700001
1.7178483705768934e+18,0.42290057372890005,2.906543312,9.43886178575
1.7178483707768934e+18,0.8113802261415,2.77473490905,10.841362770649999
1.7178483709768934e+18,1.0023231582299998,2.9753327637000004,11.406916695500001
1.7178483711768934e+18,0.633018631015,2.8245438308,10.462343443800002
1.7178483713768934e+18,0.147660438543,2.73070397175,9.515023407
1.7178483715768934e+18,0.33499587250425,3.0043873444,7.80162643435
1.7178483717768934e+18,0.0807870025555,3.3097149123999996,6.716308364850001
1.7178483719768934e+18,0.09624984740599998,2.6433007279000007,8.307080337550001
1.7178483721768934e+18,0.23486908721450006,2.1797746354000003,10.31635203595
1.7178483723768934e+18,0.629051879908,2.38461616525,11.5871044925
1.7178483725768934e+18,0.31088850403500007,2.58267679595,10.923369736500002
1.7178483727768934e+18,0.105103935231,2.6507701948999993,10.2905606686
1.7178483729768934e+18,0.5151088256284999,2.8881615371,8.860487021949998
1.7178483731768934e+18,0.3904929656844999,2.8724816437499996,6.881429992700001
1.7178483733768934e+18,0.3423081665072,2.83994680015,7.646623764050001
1.7178483735768934e+18,0.44691064456800006,2.18927986905,9.71289692635
1.7178483737768934e+18,-0.23018383025949998,2.4401282272,11.55023616
1.7178483739768934e+18,0.322040313723,2.9496386948,11.358649566
1.7178483741768934e+18,0.6798262939349999,2.7558217392000004,9.7695092014
1.7178483743768934e+18,0.44004741668499997,2.9084892654000005,8.4913845749
1.7178483745768934e+18,0.3122955780075,2.7013425292999997,7.287879776000001
1.7178483747768934e+18,0.17518819427450003,2.7603348541,8.0443616638
1.7178483749768934e+18,0.6153628463750002,2.4276890946000003,9.767690482799999
1.7178483751768934e+18,0.903266647365,2.5372387847000004,10.43388013535
1.7178483753768934e+18,1.2095821609650002,3.0825173721999994,11.318817398
1.7178483755768934e+18,1.59503061675,2.9090955047000007,10.44474753655
1.7178483757768934e+18,1.139318275385,2.7351572111999998,8.970336090100002
1.7178483759768934e+18,0.49299231721,2.9370274199999997,7.797263008049998
1.7178483761768934e+18,0.579183082585,2.861157692,8.40532104495
1.7178483763768934e+18,0.54067565917,3.2936682816499996,9.26636798855
1.7178483765768934e+18,0.4569996643255,2.97617850495,7.41862538915
1.7178483767768934e+18,0.4786974007161905,2.730899636428571,9.627871594904764
1.7178483769768934e+18,0.5067187729505,2.7818825456,11.3614337775
1.7178483771768934e+18,0.254635482815,3.36259993735,10.682932227750001
1.7178483773768934e+18,0.587348602305,3.6196903152499997,10.27917684155
1.7178483775768934e+18,0.5814882888694999,3.647240524299999,8.68106263755
1.7178483777768934e+18,0.3511547699045,3.16661997985,7.104623359750001
1.7178483779768934e+18,0.0815803527935,3.5420692291500004,8.618380485500001
1.7178483781768934e+18,0.044143203731,3.597977966300001,6.7541047668
1.7178483783768934e+18,-0.05488336945100003,3.8255946350000007,8.96787371035
1.7178483785768934e+18,0.1322724380021,4.613511154149999,8.530902397
1.7178483787768934e+18,1.3587095489515002,1.1755429458545,12.65493143475
1.7178483789768934e+18,-0.176602752665,-0.6618486785341,10.047271591550002
1.7178483791768934e+18,-0.13416600036999998,0.41387434388590005,9.775384483149999
1.7178483793768934e+18,0.2451601867685,0.32903077698565,9.746232604949999
1.7178483795768934e+18,0.002522254941899997,0.36155065155000005,9.832879921049999
1.7178483797768934e+18,-0.0336724777241,0.232878227235,9.83344125365
1.7178483799768934e+18,-0.0008158035276000005,0.18612295531849998,9.823771362399999
1.7178483801768934e+18,-0.018074913023960002,0.171416038505,9.8195426559
1.7178483803768934e+18,-0.06090085602305002,0.098996635437,9.8850539245
1.7178483805768934e+18,-0.009557624816349999,0.22106030273750005,9.80796423335
1.7178483807768934e+18,-0.0867446136483,0.23948698425499998,9.8117887802
1.7178483809768934e+18,-0.05990542602500001,0.30355375672500007,9.8228358078
1.7178483811768934e+18,-0.1126781845065,0.369768562315,9.799873558
1.7178483813768934e+18,-0.09463320923149998,0.39194494628000004,9.7829063416
1.7178483815768934e+18,-0.0897383880625,0.348729812615,9.7825994797
1.7178483817768934e+18,-0.12388238525000002,0.28580815887000005,9.838627967849998
1.7178483819768934e+18,-0.0949999465885,0.26255401610000006,9.8210994187
1.7178483821768934e+18,-0.057390655520649994,0.22186113739,9.821458671599999
1.7178483823768934e+18,-0.07497908020600001,0.187679718005,9.83095642095
1.7178483825768934e+18,-0.06847510528499998,0.175786949165,9.83396516415
1.7178483827768934e+18,-0.06364764404675,0.179746215825,9.840536499099999
1.7178483829768934e+18,-0.09516460418949999,0.238993011475,9.8297813645
1.7178483831768934e+18,-0.0807944870011,0.31544652557499997,9.8252008895
1.7178483833768934e+18,-0.13126952362400002,0.385755317675,9.811773811400002
1.7178483835768934e+18,-0.12558883667345,0.424981246955,9.778280960100002
1.7178483837768934e+18,-0.12100551061047618,0.41073872158095237,9.814262564523807
1.7178483839768934e+18,-0.128911926261,0.40601568603000004,9.803421180700001
1.7178483841768934e+18,-0.1231788482675,0.36366126251,9.809655716
1.7178483843768934e+18,-0.1045351181095,0.334935997015,9.82112187195
1.7178483845768934e+18,-0.10279124450750002,0.28184140778500005,9.8149322433
1.7178483847768934e+18,-0.08958869933685,0.268010169975,9.8180906754
1.7178483849768934e+18,-0.096736335755,0.22836511230500003,9.82315015405
1.7178483851768934e+18,-0.07639363861,0.202581230155,9.8307094346
1.7178483853768934e+18,-0.0703237609865,0.19969223785499995,9.830836669950001
1.7178483855768934e+18,-0.11681707764739999,0.22924827575499998,9.824834152300001
1.7178483857768934e+18,-0.079731697081,0.26083259584,9.818562194799998
1.7178483859768934e+18,-0.11887529755649999,0.3284694442749999,9.822289443999999
1.7178483861768934e+18,-0.12237052917500002,0.364843803405,9.801160880999998
1.7178483863768934e+18,-0.12724289704015,0.39798488616499994,9.793107627950002
1.7178483865768934e+18,-0.06396199035641,0.38217027283499994,9.81112266545
1.7178483867768934e+18,-0.190194488519,0.33816927335999997,9.799551727350003
1.7178483869768934e+18,-0.06960525513160498,0.31558872985499997,9.83429447925
1.7178483871768934e+18,0.246193038937,0.23900049590549996,9.86694907385
1.7178483873768934e+18,-0.49772996521750007,0.21493803405999995,9.800068153400002
1.7178483875768934e+18,-0.557380920415,0.226516456592,9.815583389050001
1.7178483877768934e+18,-0.8065752182100001,0.3944597168,9.762720817600002
1.7178483879768934e+18,-0.753368362425,0.397019393915,9.7630351639
1.7178483881768934e+18,-0.7376211090099999,0.41015457916,9.79822698205
1.7178483883768934e+18,-0.671907760625,0.42255628967,9.77429924015
1.7178483885768934e+18,-0.7243437194850001,0.40947349549,9.77510755925
1.7178483887768934e+18,-0.5824013900799999,0.41117994691000004,9.82741628265
1.7178483889768934e+18,-0.5186489639149999,0.41896376036500005,9.7540164188
1.7178483891768934e+18,-0.765545539855,0.21695883178499997,9.6485532299
1.7178483893768934e+18,-0.03573069763399998,0.19740948488009996,10.04657553885
1.7178483895768934e+18,0.050766929626500014,0.18821111298199997,9.73886791985
1.7178483897768934e+18,-0.10219248961260001,0.178982803345,9.898263954299999
1.7178483899768934e+18,0.008217910766820003,0.2748060379,9.8170129166
1.7178483901768934e+18,-0.16676071931150002,0.3043396225,9.803024505699998
1.7178483903768934e+18,-0.1143322448805,0.337031639105,9.794724266049998
1.7178483905768934e+18,-0.16456029509200001,0.337937255855,9.78768889625
1.7178483907768934e+18,-0.07857909392974997,0.321613700865,9.8167584457
1.7178483909768934e+18,-0.07493702479904762,0.2621120779761905,9.820599387000001
1.7178483911768934e+18,-0.065481330871,0.23019879913,9.829773880000001
1.7178483913768934e+18,-0.0372425537084,0.219840339655,9.8224017105
1.7178483915768934e+18,-0.0024324417110850004,0.18359321593000005,9.8588583985
1.7178483917768934e+18,-0.07491172027604999,0.22989193725500004,9.8337855377
1.7178483919768934e+18,-0.053102073668240005,0.28205845642,9.81488733665
1.7178483921768934e+18,-0.10711724853505,0.34253269959500005,9.7943799821
1.7178483923768934e+18,-0.14935192108900003,0.344493621825,9.781446876599999
1.7178483925768934e+18,-0.04540807342455,0.3429218902500001,9.8060332489
1.7178483927768934e+18,-0.1296603698825,0.31796129608999996,9.81467777255
1.7178483929768934e+18,-0.055811439516,0.28127259064000004,9.8185023194
1.7178483931768934e+18,-0.0755478973375,0.22921833800500005,9.831742286699999
1.7178483933768934e+18,-0.0322504348745,0.1976040802,9.8312932206
1.7178483935768934e+18,-0.04513114929670001,0.17672250366000003,9.85228706365
1.7178483937768934e+18,-0.046575645444999994,0.23552023314,9.82882335655
1.7178483939768934e+18,-0.05126090240500001,0.27393035888,9.828336868250002
1.7178483941768934e+18,-0.036823425292300004,0.33591645812,9.79836170205
1.7178483943768934e+18,-0.0920885009745,0.328469444285,9.7796057053
1.7178483945768934e+18,-0.0859138412415,0.32576756285999997,9.8168931655
1.7178483947768934e+18,-0.06083349609134999,0.33044533539000004,9.817626640250001
1.7178483949768934e+18,-0.051230964657449994,0.33431478881500004,9.81981209585
1.7178483951768934e+18,-0.027422973633080005,0.32726445008,10.04572979705
1.7178483953768934e+18,-0.09360784149349999,0.37285214996000005,9.4851904452
1.7178483955768934e+18,0.13818514251526998,0.3095712432915,9.88263645145
1.7178483957768934e+18,-0.013659095764650001,0.20763322447999996,9.84055895225
1.7178483959768934e+18,0.08666228485380001,0.20353923797999998,9.844338592500002
1.7178483961768934e+18,0.03266207885595,0.22312600709,9.831877006500001
1.7178483963768934e+18,0.0020207977314649996,0.26399851227500004,9.80992515555
1.7178483965768934e+18,-0.051814750672,0.288285507195,9.831465362500001
1.7178483967768934e+18,-0.11911479950100001,0.311232788075,9.800352561950001
1.7178483969768934e+18,-0.07954458618449999,0.336290679925,9.803772949199999
1.7178483971768934e+18,-0.133806747427,0.34463582610999993,9.7883101043
1.7178483973768934e+18,-0.09935588837099998,0.303830680835,9.824841636600002
1.7178483975768934e+18,-0.100523460388,0.276856773375,9.812694396950002
1.7178483977768934e+18,-0.07269632721313998,0.2429447937,9.828336868250002
1.7178483979768934e+18,-0.03275331769642857,0.20833105904761903,9.828425968761906
1.7178483981768934e+18,-0.0344134368901,0.20310514069000002,9.8257322845
1.7178483983768934e+18,-0.04016896820135,0.19645896148000003,9.846060012899999
1.7178483985768934e+18,-0.03778891754465001,0.25793611907999997,9.8220125198
1.7178483987768934e+18,-0.050025970453500004,0.30231134034000007,9.8126345214
1.7178483989768934e+18,-0.11597882080000002,0.324832008365,9.812739303499999
1.7178483991768934e+18,-0.09730515289029998,0.3485876083200001,9.8070960388
1.7178483993768934e+18,-0.11750564576100002,0.331036605845,9.796273544399998
1.7178483995768934e+18,-0.11039543151600002,0.33998050689500003,9.8192881851
1.7178483997768934e+18,-0.08460406494600001,0.34349070740500004,9.80877255235
1.7178483999768934e+18,-0.10238708496650002,0.31722033691000007,9.7911841278
1.7178484001768934e+18,-0.057652610778500014,0.26622887420999997,9.83136806485
1.7178484003768934e+18,-0.052316207887,0.21664448546999998,9.828366806
1.7178484005768934e+18,0.003091072082209998,0.19758162689499997,9.8417040711
1.7178484007768934e+18,-0.14959890746455,0.1921404419,9.82228195965
1.7178484009768934e+18,-0.028328590390000002,0.25954527283499995,9.823546829300001
1.7178484011768934e+18,-0.09858499145399999,0.28031458281999994,9.8153289184
1.7178484013768934e+18,-0.17162560271900001,0.328342208865,9.8145205994
1.7178484015768934e+18,-0.025566833497450002,0.319054023745,9.803945091199997
1.7178484017768934e+18,-0.16460520172,0.33078961945,9.791550865249999
1.7178484019768934e+18,-0.0736767883277,0.33858840179000005,9.8533648226
1.7178484021768934e+18,-0.106511009214,0.4068614273050001,9.73818683655
1.7178484023768934e+18,0.05710624694659999,0.29719947052499995,9.820852432150001
1.7178484025768934e+18,0.10728939056575001,0.215761322025,9.8651827469
1.7178484027768934e+18,0.0008906478882400014,0.20526065826,9.813600013750001
1.7178484029768934e+18,0.09609267426174999,0.201211578375,9.857496231149998
1.7178484031768934e+18,0.052166519164789996,0.26095234680499996,9.8208224945
1.7178484033768934e+18,-0.0101488952625,0.29971424103,9.8138245468
1.7178484035768934e+18,-0.05764512633849998,0.34365536498,9.810703537050001
1.7178484037768934e+18,-0.05813161468549999,0.33430730438500006,9.757174850399998
1.7178484039768934e+18,-0.061596908569499995,0.30569430541,9.82746867355
1.7178484041768934e+18,-0.017992584229299998,0.28038194274999995,9.8372658004
1.7178484043768934e+18,-0.0263003082229,0.26719436645999994,9.810658630399999
1.7178484045768934e+18,-0.015320640563799998,0.26132656861,9.823524375900002
1.7178484047768934e+18,-0.025866210936454997,0.25081093597000004,9.819580078049999
1.7178484049768934e+18,0.06781611850809524,0.22309321812428567,9.80905909952381
1.7178484051768934e+18,-0.08949140167249998,0.21176463317,9.799102661400003
1.7178484053768934e+18,0.23980133056199998,0.2025213546745,9.868064254750001
1.7178484055768934e+18,-0.06831793213099999,0.254291198722,9.8220424576
1.7178484057768934e+18,0.13764626313055,0.35600468445,9.810898132400002
1.7178484059768934e+18,-0.0800385589595,0.34617761994,9.809161743150002
1.7178484061768934e+18,0.006908134459000001,0.3959416351250001,9.78836997985
1.7178484063768934e+18,-0.049853828430549994,0.39581439971,9.784493041950002
1.7178484065768934e+18,-0.03579805755850501,0.32791559600500003,9.819714798100003
1.7178484067768934e+18,0.03876189422614,0.29810508727999996,9.815733078049998
1.7178484069768934e+18,0.0328940963746,0.25344545746999997,9.82939965825
1.7178484071768934e+18,0.0541424102765,0.22970482635999998,9.827326469499997
1.7178484073768934e+18,0.04308789825624999,0.08343649291650002,9.835656646499999
1.7178484075768934e+18,0.23601420593550002,0.06393953704699999,9.8415543823
1.7178484077768934e+18,0.08351133727599999,0.0387618942254,9.828770965699999
1.7178484079768934e+18,0.24339385986265002,0.069096313474,9.8043417662
1.7178484081768934e+18,0.09209598540293001,0.23674019622999998,9.836861640949998
1.7178484083768934e+18,0.03597019958615,0.15335609435515002,9.7450276107
1.7178484085768934e+18,0.11195967865599998,0.11389066314450003,9.890652282549999
1.7178484087768934e+18,0.049494575498,-0.011892768860000002,10.114930893650001
1.7178484089768934e+18,-0.05475613400599999,0.8457562408325001,10.4968466947
1.7178484091768934e+18,-0.01312021641500002,2.8772567138999996,10.505895378399998
1.7178484093768934e+18,0.35440301513,3.7621341019000005,9.22771836115
1.7178484095768934e+18,1.6545243987099998,3.33816325385,9.004891730999997
1.7178484097768934e+18,1.0820548552425,2.98702345265,8.608695625349998
1.7178484099768934e+18,0.5003195800775,2.5099580154,7.761711936900001
1.7178484101768934e+18,0.47932573699000003,2.45729003905,6.925947418300001
1.7178484103768934e+18,0.423761283866,2.1166284484,9.40495729065
1.7178484105768934e+18,1.4513294449499998,2.37841156775,11.510882995500001
1.7178484107768934e+18,1.7999918976300002,2.3988141403500003,11.403571152549997
1.7178484109768934e+18,1.132559829735,2.0695064392,10.462747604
1.7178484111768934e+18,0.9037082290199999,2.09591901401,9.545911674300001
1.7178484113768934e+18,-0.01007405090955001,2.84101707455,6.744674377450001
1.7178484115768934e+18,-0.0076116714694999974,2.28332180785,7.1626950989000004
1.7178484117768934e+18,0.9059535598549999,2.565821846,10.01865110855
1.7178484119768934e+18,1.3586888776071429,3.246498870809524,11.54740847
1.7178484121768934e+18,1.54741463468,3.15828980265,10.843203941000002
1.7178484123768934e+18,0.650749259925,3.11870462035,9.71670650455
1.7178484125768934e+18,0.181752044671,3.1247595291,8.3391586304
1.7178484127768934e+18,0.17607135773145,3.1631921081,6.1535311661000005
1.7178484129768934e+18,0.32499666591899995,2.8009528886000004,8.83935097525
1.7178484131768934e+18,0.6459667053679999,2.8324399110000003,10.448579567649999
1.7178484133768934e+18,1.326863273605,3.0110709457,11.569568457999999
1.7178484135768934e+18,1.1421997833250002,3.0215267028499997,10.3650382914
1.7178484137768934e+18,0.812173576364,2.94098668665,9.342724204700001
1.7178484139768934e+18,0.489437210075,2.9159138261500006,6.704894599899999
1.7178484141768934e+18,0.6248082046475,2.8901898194,7.421783821150001
1.7178484143768934e+18,0.4270768890035,2.79062436675,10.140879432499998
1.7178484145768934e+18,1.13602512356705,2.43566001895,10.81313896165
1.7178484147768934e+18,1.223929824765,2.8330686035,11.088648536000003
1.7178484149768934e+18,0.8389828262964999,2.9930933303500002,10.103457252950001
1.7178484151768934e+18,0.17691709898949998,2.8809240876500004,8.615162177799998
1.7178484153768934e+18,0.050400192277499964,3.02287390145,6.486393974249998
1.7178484155768934e+18,0.054434303283649996,3.0550420074,8.1883696977
1.7178484157768934e+18,0.2693798217615001,3.1679896315500002,10.135834921649998
1.7178484159768934e+18,0.4409605178470001,3.1187046202,11.666222465499999
1.7178484161768934e+18,0.1798584823455,3.4484389342500004,10.547800735100001
1.7178484163768934e+18,0.4026851120106,3.2711251602000004,9.092010566899997
1.7178484165768934e+18,-0.10368189238694998,2.85430194865,6.77393103785
1.7178484167768934e+18,-0.00401165771024999,2.6223218538,6.61129424295
1.7178484169768934e+18,0.023164329566000008,3.6724930115,9.168059921350002
1.7178484171768934e+18,0.21930894471550003,3.75471702576,11.1153754581
1.7178484173768934e+18,-0.8187673645275,0.6163507919899999,11.038375579999997
1.7178484175768934e+18,0.7946001204500001,0.2299892349305,9.7598767318
1.7178484177768934e+18,0.5974825286525001,0.88433102411,9.77806391135
1.7178484179768934e+18,-0.267171913146,0.5873785400500001,9.7974710541
1.7178484181768934e+18,0.18636994170649998,0.47201344298,9.809214134250002
1.7178484183768934e+18,0.32209270478,0.45223207856,9.819340576150001
1.7178484185768934e+18,0.11925700377949999,0.4219799881049999,9.86051245885
1.7178484187768934e+18,0.18608553314,0.41760159301499994,9.831615051250001
1.7178484189768934e+18,0.16014447783999997,0.48292575074000005,9.8108307723
1.7178484191768934e+18,0.10101850236999999,0.5640983799571428,9.79440386095238
1.7178484193768934e+18,0.096496833809,0.5892721023649998,9.7879209136
1.7178484195768934e+18,0.04906047821264001,0.615774490365,9.75120975485
1.7178484197768934e+18,0.07128925323449999,0.5825286254850001,9.7854809875
1.7178484199768934e+18,0.08626560973849999,0.55480627441,9.796812423700002
1.7178484201768934e+18,0.12207863616800001,0.52184481811,9.827416282700002
1.7178484203768934e+18,0.131239585877,0.4784201202399999,9.80431931305
1.7178484205768934e+18,0.1366882553115,0.417945877075,9.8460375596
1.7178484207768934e+18,0.11011102295599998,0.433416206345,9.849383102400001
1.7178484209768934e+18,0.11928694152345001,0.54642370606,9.8129638366
1.7178484211768934e+18,0.081138771056,0.6318061523349999,9.71582334135
1.7178484213768934e+18,0.07371421050864999,0.58452696992,9.78989680475
1.7178484215768934e+18,0.13099259949050002,0.59034986115,9.8038253404
1.7178484217768934e+18,0.145153152465,0.565030014035,9.81090561675
1.7178484219768934e+18,0.08104147338445,0.543010803235,9.806676910449998
1.7178484221768934e+18,0.1780697021405,0.54716466523,9.806976287850002
1.7178484223768934e+18,0.0529748382498,0.5185217285099999,9.81291893005
1.7178484225768934e+18,0.170585266104,0.5387521591150001,9.7922693711
1.7178484227768934e+18,0.05929918671064001,0.496083389275,9.8122528152
1.7178484229768934e+18,0.18336868286,0.49862061310500005,9.777532516499999
1.7178484231768934e+18,0.0993184661855,0.413290557855,9.838104057250002
1.7178484233768934e+18,0.13474978638200003,0.412182861325,9.854023452849997
1.7178484235768934e+18,0.111742630009,0.52352881622,9.883579490300002
1.7178484237768934e+18,-0.028246261598,0.607107513425,9.6581782154
1.7178484239768934e+18,0.00023201751769999558,0.59862016298,9.8012581786
1.7178484241768934e+18,0.1317260742225,0.612788200365,9.8043717041
1.7178484243768934e+18,0.022879920959,0.58964632416,9.81458795925
1.7178484245768934e+18,0.09797875214049999,0.583808464055,9.77841567995
1.7178484247768934e+18,0.07244185638570001,0.5565202102700001,9.82248403945
1.7178484249768934e+18,0.1083970871025,0.56117552948,9.779291359050001
1.7178484251768934e+18,0.08042026520049998,0.50940568543,9.803024505500002
1.7178484253768934e+18,0.1000519409143,0.48624884033000004,9.839181816199998
1.7178484255768934e+18,0.10842702483950002,0.48469956206500003,9.767278839149999
1.7178484257768934e+18,0.10778336333800001,0.4109703826900001,9.852466690099998
1.7178484259768934e+18,0.0944386138945,0.409136695865,9.85312532045
1.7178484261768934e+18,0.035005776543285703,0.5049855913380954,9.808239375428572
1.7178484263768934e+18,0.048566505427750005,0.538355484015,9.78524897005
1.7178484265768934e+18,-0.010089019775499999,0.58796981048,9.79423777775
1.7178484267768934e+18,-0.033028816223,0.608364898685,9.761680480899999
1.7178484269768934e+18,-0.0084648971586,0.5910384292649999,9.7962660599
1.7178484271768934e+18,0.0202154617314,0.5711597671399999,9.7925912017
1.7178484273768934e+18,0.022101539611870002,0.538729705815,9.803376274100001
1.7178484275768934e+18,0.0855994949315,0.49144303893999985,9.81686322795
1.7178484277768934e+18,0.08036787414499999,0.42772803497,9.8308965455
1.7178484279768934e+18,0.10843450927750001,0.4039874038899999,9.81432600395
1.7178484281768934e+18,0.10706485748199998,0.38443057251,9.8448250809
1.7178484283768934e+18,0.0946182403565,0.4414619751,9.814745132500002
1.7178484285768934e+18,0.074223152163,0.4943769378599999,9.821047027699999
1.7178484287768934e+18,0.02511028289727,0.5242697754,9.791977478099998
1.7178484289768934e+18,0.03180885315347,0.56097344971,9.752504562350001
1.7178484291768934e+18,0.07866142273200001,0.5165308685200001,9.816077362349999
1.7178484293768934e+18,0.1751956787,0.5038971405000001,9.794185386650001
1.7178484295768934e+18,0.173661369325,0.46009822082500007,9.8158154067
1.7178484297768934e+18,0.1711465988125,0.47117518617,9.806624519349999
1.7178484299768934e+18,0.15891703033,0.45579467009999997,9.778453102049998
1.7178484301768934e+18,0.137204681404,0.36410284423999995,9.842467483650001
1.7178484303768934e+18,0.12916639708899996,0.352861221315,9.835671615650002
1.7178484305768934e+18,0.097095588686,0.36486625671,9.8371759873
1.7178484307768934e+18,0.12502001952450004,0.435414550795,9.814385879349999
1.7178484309768934e+18,0.0665890274075,0.4637730789300001,9.79677500155
1.7178484311768934e+18,0.0311128005975,0.515288452155,9.78290634165
1.7178484313768934e+18,0.036486625668650005,0.51883607483,9.791461051899999
1.7178484315768934e+18,0.026442512512005002,0.5201383666950001,9.762032249450002
1.7178484317768934e+18,0.0455203399655,0.476953170785,9.812507286050003
1.7178484319768934e+18,0.096601615908,0.411875999455,9.8267651368
1.7178484321768934e+18,0.10347981262450001,0.35511403655999996,9.825829582299999
1.7178484323768934e+18,0.12551399231299998,0.32613430022999995,9.8547419586
1.7178484325768934e+18,0.0914672927915,0.38714742279,9.82344204705
1.7178484327768934e+18,0.0899105300935,0.43581122589000004,9.804603721700001
1.7178484329768934e+18,0.043162742614,0.49561186982,9.81107775885
1.7178484331768934e+18,0.015545173644189999,0.5077067184449999,9.7786252442
1.7178484333768934e+18,0.022538844514961902,0.5248799351333333,9.751186588809524
1.7178484335768934e+18,0.044083328246500006,0.4658013610799999,9.8218852844
1.7178484337768934e+18,0.07622149657749999,0.44164160155999993,9.815777984650001
1.7178484339768934e+18,0.11028316497849999,0.393898384085,9.82145867165
1.7178484341768934e+18,0.100388740530825,0.35000965119000005,9.824317726150001
1.7178484343768934e+18,0.1308503952085,0.33096924591,9.844862502999998
1.7178484345768934e+18,0.105283561714,0.34867742156000003,9.827042060900002
1.7178484347768934e+18,0.09143735503965,0.41997415923500003,9.8082860642
1.7178484349768934e+18,0.06962022399685,0.45827950286499997,9.803787918200001
1.7178484351768934e+18,0.03947291565015,0.48789541624999994,9.804513908299999
1.7178484353768934e+18,0.014400054931860001,0.51183064271,9.7600563582
1.7178484355768934e+18,0.0423095169052,0.490350311285,9.7874269408
1.7178484357768934e+18,0.055961128236,0.43822869873,9.8234420472
1.7178484359768934e+18,0.0948652267385,0.38130956268000005,9.83251318345
1.7178484361768934e+18,0.10574011230250002,0.360338172915,9.81482746125
1.7178484363768934e+18,0.10664572905799999,0.32056587982499996,9.838051666400002
1.7178484365768934e+18,0.09860744476250001,0.34032479094999996,9.834818389949998
1.7178484367768934e+18,0.08014334106599999,0.40576121520999997,9.8138769378
1.7178484369768934e+18,0.03799848174535,0.4688400421150001,9.8046486283
1.7178484371768934e+18,0.05931415558150001,0.46053980254000004,9.79392343145
1.7178484373768934e+18,0.017304016113700003,0.482274604795,9.77459113315
1.7178484375768934e+18,0.027273284912050007,0.47247747802500006,9.786543777450001
1.7178484377768934e+18,0.06576573943675001,0.4317247238200001,9.818158035250002
1.7178484379768934e+18,0.0972976684535,0.38303098296500004,9.82683249665
1.7178484381768934e+18,0.11207194520100001,0.343692787165,9.82319506085
1.7178484383768934e+18,0.118269058223,0.33412019348,9.822506492749998
1.7178484385768934e+18,0.103045715334,0.32051348877499997,9.842699501100002
1.7178484387768934e+18,0.096564193732,0.39784268189,9.8207177124
1.7178484389768934e+18,0.04754862213165,0.44926075745,9.80244820405
1.7178484391768934e+18,0.04325255584925,0.482484169015,9.800846534799998
1.7178484393768934e+18,0.02316432952855,0.48989376068499996,9.76367882545
1.7178484395768934e+18,0.030686187742925003,0.44770399474500006,9.796902237
1.7178484397768934e+18,0.0585282897945,0.43313179780000005,9.813540138299999
1.7178484399768934e+18,0.093143806464,0.388127883915,9.8158528289
1.7178484401768934e+18,0.10719957733350001,0.34170192718500003,9.8289954986
1.7178484403768934e+18,0.11128287178714283,0.3167199489095238,9.819651358428573
1.7178484405768934e+18,0.1080378341645,0.31952554321,9.848447547949998
1.7178484407768934e+18,0.1031954040472,0.35833234405000003,9.8337855378
1.7178484409768934e+18,0.07647596740990001,0.44455304717500005,9.824751823300002
1.7178484411768934e+18,0.050325347897775,0.507706718445,9.75494448865
1.7178484413768934e+18,0.166124542244,0.45059298705,9.7828913727
1.7178484415768934e+18,0.10400372313749999,0.448938926705,9.826742683400003
1.7178484417768934e+18,0.08728349303800001,0.4588782577450001,9.778033973750002
1.7178484419768934e+18,0.08629554749050002,0.42629102325499996,9.8108158036
1.7178484421768934e+18,0.14954651642099998,0.39088964081000005,9.8150894166
1.7178484423768934e+18,0.1199306030425,0.34132022094500003,9.828494041499999
1.7178484425768934e+18,0.131815887445,0.32016172027,9.841943572900002
1.7178484427768934e+18,0.10324031067650001,0.34926869202,9.82394350425
1.7178484429768934e+18,0.10728939057050002,0.379880035405,9.82043330385
1.7178484431768934e+18,0.049082931518750005,0.43937381745000004,9.80684156805
1.7178484433768934e+18,0.013958473204325004,0.467088684085,9.7590983505
1.7178484435768934e+18,0.089049819954,0.47156437683499997,9.816474037099999
1.7178484437768934e+18,0.10293344879399999,0.466729431145,9.807724731450001
1.7178484439768934e+18,0.0844618606575,0.462897399895,9.809917671250002
1.7178484441768934e+18,0.083301773074,0.456198829655,9.80580123135
1.7178484443768934e+18,0.09998458098900001,0.4340823211649999,9.7942826843
1.7178484445768934e+18,0.0923953628595,0.419128417975,9.832034179699999
1.7178484447768934e+18,0.11151061248449998,0.42825942993500005,9.808166313300001
1.7178484449768934e+18,0.102110160829,0.39635327911,9.8023059998
1.7178484451768934e+18,0.11430230713449999,0.38084552765000007,9.814737647949999
1.7178484453768934e+18,0.11930939483699998,0.37648958588000003,9.787636505150001
1.7178484455768934e+18,0.13120216369499998,0.34947077178999997,9.83747536465
1.7178484457768934e+18,0.08805438995485002,0.32787817382499995,9.840252090450003
1.7178484459768934e+18,0.11529025269299997,0.384430572505,9.820328521699999
1.7178484461768934e+18,0.0321830749495,0.434179618835,9.8075151673
1.7178484463768934e+18,0.0472342758185,0.46548701477000004,9.8101796264
1.7178484465768934e+18,0.01886826324445,0.47059140015,9.789694725050001
1.7178484467768934e+18,0.00541124725265,0.47137726593,9.769786125150002
1.7178484469768934e+18,0.04386627960185,0.4702695693999999,9.7415772858
1.7178484471768934e+18,0.22875430298000005,0.352576812735,9.851314086650001
1.7178484473768934e+18,0.14640305328835002,0.3061059494050001,9.8252457964
1.7178484475768934e+18,0.2582272992695238,0.2759903607904762,9.870246146000001
1.7178484477768934e+18,0.1288595352125,0.327309356695,9.82440005495
1.7178484479768934e+18,0.08259823607649999,0.3725228347849999,9.812874023350002
1.7178484481768934e+18,0.09361532592199999,0.38157900237500003,9.797029472399998
1.7178484483768934e+18,-0.00990939331135,0.4587585067750001,9.751658821000001
1.7178484485768934e+18,0.15227833556700002,0.36741096497500003,9.817881111
1.7178484487768934e+18,0.027318191530949998,0.352225044245,9.8431410827
1.7178484489768934e+18,0.1583706665045,0.2412757644634999,9.837640022399999
1.7178484491768934e+18,0.1856439514005,0.1816846847488,9.87773414595
1.7178484493768934e+18,0.03486998749249999,0.34365536496500004,10.248183793499997
1.7178484495768934e+18,-0.12091106414549999,1.7948575745499997,10.756773673649999
1.7178484497768934e+18,0.266528251673,4.624019302400001,8.97300803385
1.7178484499768934e+18,-2.0519704056349997,5.169200592050001,9.05214097565
1.7178484501768934e+18,-1.5442412338950002,4.9908315123,7.93606935885
1.7178484503768934e+18,-0.6866595840016501,3.80995964815,5.4844674912
1.7178484505768934e+18,-0.5411322098144999,3.0971793823500002,7.158623565699999
1.7178484507768934e+18,-0.1303115157565,4.4438764114,9.845775604099998
1.7178484509768934e+18,0.18203645323700002,5.207648139950001,11.042851273499998
1.7178484511768934e+18,0.7277042312249999,4.8766190186000005,10.4318668204
1.7178484513768934e+18,0.52790721127,4.18372489935,9.551068451000003
1.7178484515768934e+18,-0.02092648316239999,3.8295239639000003,6.741044425950001
1.7178484517768934e+18,0.05584886170849999,3.41273069,6.040965248199999
1.7178484519768934e+18,0.011773017886499999,2.99332534795,8.533117790499999
1.7178484521768934e+18,0.5431305541625,3.53933741005,11.7496365065
1.7178484523768934e+18,1.182421142665,3.5108815841500003,11.191686768500002
1.7178484525768934e+18,1.68794989005,3.1424677048999996,9.998248534549997
1.7178484527768934e+18,1.0681412887485,3.1661409759000003,8.5309248505
1.7178484529768934e+18,0.34089360810999997,3.08067620075,5.8833056029
1.7178484531768934e+18,0.556033721869,2.91298741155,8.0670993804
1.7178484533768934e+18,0.15176939394,2.7472969665999996,11.0795998545
1.7178484535768934e+18,-0.47394442747099996,3.42357563785,11.3307775265
1.7178484537768934e+18,-0.034121543884500005,3.55156697845,10.4160447231
1.7178484539768934e+18,0.05910459137550002,3.4016986312999995,9.141767097750002
1.7178484541768934e+18,0.09169182591499997,3.25846149435,5.7451054917
1.7178484543768934e+18,-0.04805007933799998,3.21312826535,7.937236930700001
1.7178484545768934e+18,0.649028908837143,3.13592167447619,10.78042484842857
1.7178484547768934e+18,0.6134393462996399,3.17027238465,11.963885970499998
1.7178484549768934e+18,0.166805625936,2.9341010055999996,10.007297218400002
1.7178484551768934e+18,-0.24433689880595,2.85543209845,8.56574244695
1.7178484553768934e+18,-0.057734939579050015,2.98903676595,6.28530963135
1.7178484555768934e+18,0.09986482999399997,2.8747718812,8.2887359846
1.7178484557768934e+18,0.6754928055455001,3.31352449025,11.416362053999999
1.7178484559768934e+18,0.3237991561655,3.6343223876500006,11.4634690935
1.7178484561768934e+18,0.20835173035450003,3.20359309375,9.60280835735
1.7178484563768934e+18,-0.11558963015549997,2.8611876297,7.642148071300001
1.7178484565768934e+18,0.5938525772525,1.89166875455,8.74084082805
1.7178484567768934e+18,0.9304875411789999,2.2390738219200004,10.490619644449998
1.7178484569768934e+18,0.2050735473685,0.528648170456,9.3795925373
1.7178484571768934e+18,0.02911445615199999,1.2779375152849999,8.506548042750001
1.7178484573768934e+18,1.0570643234205002,0.47100304414140004,9.62568079395
1.7178484575768934e+18,1.337491172865,0.40445143891499996,9.4326122824
1.7178484577768934e+18,0.57046371455,4.7202392120545005,11.218406203700003
1.7178484579768934e+18,0.61086470035,0.7348892898349999,9.331048484849997
1.7178484581768934e+18,-0.026060806278000004,1.5834372253399998,9.8311585009
1.7178484583768934e+18,0.22481748962700002,1.3010494537150001,10.01970641315
1.7178484585768934e+18,0.36699932098599997,1.7804126129,10.8076753245
1.7178484587768934e+18,0.140707397464,0.6774387588849999,9.2774524383
1.7178484589768934e+18,-0.08339158630099996,1.1344234542599998,9.29443462365
1.7178484591768934e+18,-0.5370457076592,2.20778139505,9.265814140300002
1.7178484593768934e+18,-0.7353982315044999,2.6814189606000003,9.223751609699999
1.7178484595768934e+18,-0.59130786894255,3.0208605880999997,9.77237573945
1.7178484597768934e+18,-0.501636840858,6.020630035349999,9.5978386909
1.7178484599768934e+18,0.626245216425,4.790937194920001,9.438195671550002
1.7178484601768934e+18,-1.1939771118615,5.09683358002,1.8438282391100003
1.7178484603768934e+18,-7.954451133750001,2.854025024385,-4.717163108775
1.7178484605768934e+18,-15.016128799000004,4.930304878299999,3.4192421493000005
1.7178484607768934e+18,-6.50101856255,0.7109390945449998,7.040182365550001
1.7178484609768934e+18,-1.377749954215,3.2602278214500005,8.52632940695
1.7178484611768934e+18,-0.44125241090999995,3.0614935914,8.1473100816
1.7178484613768934e+18,0.7810083847,2.98896192155,9.6693674467
1.7178484615768934e+18,1.01466499337,2.8129354705500003,9.4639570999
1.7178484617768934e+18,0.5541405160047619,2.9610496085238096,9.29437225352381
1.7178484619768934e+18,1.4112278366350002,3.2533795623,8.7353173142
1.7178484621768934e+18,4.43042687985,4.4392959366,8.164277297749999
1.7178484623768934e+18,8.434136123600002,5.91795854185,5.892092330950001
1.7178484625768934e+18,7.3659349594000005,4.793654045049999,1.4643523635100002
1.7178484627768934e+18,5.237862808200001,7.832829048050002,0.11932436371700002
1.7178484629768934e+18,2.72158792875,9.177497795099999,0.45007656097649995
1.7178484631768934e+18,2.9655281524499997,9.6074636765,1.05231919092
1.7178484633768934e+18,3.10699147795,9.1705522384,1.2012744369
1.7178484635768934e+18,2.7477310638000003,9.370416618350001,1.09253306574
1.7178484637768934e+18,2.7134523468999996,9.30203132635,0.8955651626749999
1.7178484639768934e+18,2.6768160323499997,9.44240192405,0.9637783126649999
1.7178484641768934e+18,2.6021363296500004,9.293109878549998,1.13575568395
1.7178484643768934e+18,2.7377692795999997,9.33335369105,1.17380655675
1.7178484645768934e+18,2.8804001769,9.2395213165,1.4256802826500001
1.7178484647768934e+18,2.8794870757,9.2834250184,1.4794335022499998
1.7178484649768934e+18,2.9539871521,9.413631751999999,1.1807296600600001
1.7178484651768934e+18,2.7996955032,9.234207366949999,1.23957978045
1.7178484653768934e+18,2.5747732314999996,9.260470252949998,1.1988045730499999
1.7178484655768934e+18,2.8487035903499995,9.2520053559,1.29150679775
1.7178484657768934e+18,2.7405010986500002,9.33342105105,1.2503947906500001
1.7178484659768934e+18,2.7310108338,9.379689834650002,1.15214659885
1.7178484661768934e+18,2.8709548188000005,9.112270935100002,1.3598396987499999
1.7178484663768934e+18,2.9624146271,9.401896156300001,1.3657299500000002
1.7178484665768934e+18,2.5344171524499997,9.1999810409,0.9933867416950001
1.7178484667768934e+18,3.0081145934499998,9.1699983903,1.046196922295
1.7178484669768934e+18,3.21932537845,9.373500205900001,0.914635505705
1.7178484671768934e+18,3.4737962035,9.2255778121,0.9505757675199998
1.7178484673768934e+18,3.4549354246999995,9.0678508072,0.95669803618
1.7178484675768934e+18,3.5213074036000003,8.81548310845,1.0380613402849999
1.7178484677768934e+18,3.94081752775,9.124582832399998,1.1618539123649998
1.7178484679768934e+18,3.8269268646500003,9.293132331799999,1.3847628708
1.7178484681768934e+18,3.4950220641999996,8.824082725599999,1.2211007080749998
1.7178484683768934e+18,3.0690902938500004,9.11233081055,1.2058848495999999
1.7178484685768934e+18,3.0471384429499997,9.2003926849,1.9559899978999997
1.7178484687768934e+18,3.7814813689499998,8.8011354446,2.3536156310500003
1.7178484689768934e+18,3.392530909952381,8.743125719333333,2.869375959190476
1.7178484691768934e+18,2.86530406945,8.6624712982,3.4293386536
1.7178484693768934e+18,2.4447610931999995,9.2055943678,3.526546508649999
1.7178484695768934e+18,2.1647234343,9.0931332322,3.962926551849999
1.7178484697768934e+18,-0.024526496862500014,9.48548982195,4.297443420374999
1.7178484699768934e+18,-4.564263565,7.834992050250001,0.8917630690495001
1.7178484701768934e+18,-7.690153243599999,5.6867867661,2.8557763824649998
1.7178484703768934e+18,-6.3491593553,4.361921836800001,2.232944068545
1.7178484705768934e+18,-4.3988425599,0.1270408172625,9.12808554835
1.7178484707768934e+18,-2.1338426513999993,1.7909956055399998,8.97698226925
1.7178484709768934e+18,-2.41063954915,2.32228578185,10.3473675386
1.7178484711768934e+18,-2.7269393005700002,0.9380692748549999,10.084596473849999
1.7178484713768934e+18,-0.4831652527320001,0.6160738676649998,9.32597403685
1.7178484715768934e+18,0.549312698415,-2.872279563965,9.561898429900001
1.7178484717768934e+18,-0.8244779892205001,-1.8703830185010002,9.320577758549998
1.7178484719768934e+18,0.4928875351335,-0.1031579818565,10.7858881295
1.7178484721768934e+18,-0.25507706449900003,-3.0307774657499995,8.766939056350001
1.7178484723768934e+18,-1.224947708189,0.57127951815,10.90524243215
1.7178484725768934e+18,2.3863750076150003,-0.20159328457050002,9.0252344284
1.7178484727768934e+18,1.9254834365895004,1.547639167806,9.0735240096
1.7178484729768934e+18,0.35884128567900003,2.5632397156000004,9.207592712250001
1.7178484731768934e+18,0.8825646972550001,2.557087509285,12.742402038599998
1.7178484733768934e+18,1.0233544235495,3.1328951110500003,5.674602104235001
1.7178484735768934e+18,-0.729779291114375,3.15903076175,11.404577808500001
1.7178484737768934e+18,,,
