Timestamps,Gyro_X,Gyro_Y,Gyro_Z
1.7178483627831345e+18,-0.1312985712957143,-0.06724803987728573,0.012151006090952385
1.7178483629831345e+18,-0.11548739802945,-0.023428431847999982,0.05511025870999999
1.7178483631831345e+18,-1.8967958523949995,1.042915995647,0.35571223272999997
1.7178483633831345e+18,1.924966064021,-0.5930331289249999,0.775458924405
1.7178483635831345e+18,-0.4091761156945,-2.2381399394250003,1.4586003705700001
1.7178483637831345e+18,1.531582999215,-0.36797947511949997,2.8087270379
1.7178483639831345e+18,3.2358856322,-0.549463861287,-0.4984814055499999
1.7178483641831345e+18,0.8002697236299999,-0.7456548243700001,-2.7354160965500003
1.7178483643831345e+18,2.124460789225,-1.5881465859364998,-1.6941122710249996
1.7178483645831345e+18,0.192393515633,-0.204878555257,0.1388359788775
1.7178483647831345e+18,0.3981644006510001,-0.515955942525,-0.08898105676999998
1.7178483649831345e+18,0.004326480652734993,-0.34638722388999993,-0.08105584825275
1.7178483651831345e+18,-0.06259905373442001,0.026257357607300018,0.02716237585899999
1.7178483653831345e+18,0.5249517379565,0.8334758327100001,-0.42656858936
1.7178483655831345e+18,0.19821592271600003,-0.28372232128950003,0.3062398111465
1.7178483657831345e+18,0.0355004065193,0.49618666693,-0.10086006074500001
1.7178483659831345e+18,0.138046092452,0.113109895579,-0.3357449120195001
1.7178483661831345e+18,-0.3845980072494999,-0.3090886177785,0.643370436126
1.7178483663831345e+18,-0.18879913166099999,-0.26888097094800006,0.14093658550771
1.7178483665831345e+18,-0.45182181447499997,-0.086002134125,0.11660522511399998
1.7178483667831345e+18,-0.787454281815,0.179836635669,0.1342795738558
1.7178483669831345e+18,-0.8142561808499998,0.03655501002300001,-0.029337327936000003
1.7178483671831345e+18,-1.44624450215,0.15350336936,0.382679927627
1.7178483673831345e+18,-1.3370010972,-0.095815123028375,0.018689120200349997
1.7178483675831345e+18,-1.16691969635,-0.031082132998099997,0.0394877345803
1.7178483677831345e+18,-1.1016761273250002,0.1123400250274,-0.17008070606305004
1.7178483679831345e+18,-0.4079962696810001,-0.06937242746750001,0.040483197781499995
1.7178483681831345e+18,0.0534631647196,0.11722466822416999,0.04598377762555
1.7178483683831345e+18,0.0123696247456,-0.14199361111300002,-0.072788939755
1.7178483685831345e+18,-0.004760536992499999,-0.14804315030369503,-0.0950019318125
1.7178483687831345e+18,-0.007434227603000004,-0.4712751653100001,-0.25298921335755
1.7178483689831345e+18,0.11657918127983,0.07962079602319,-0.12700770667945
1.7178483691831345e+18,-0.1373669040715,0.24349545615530005,-0.0018878206401500008
1.7178483693831345e+18,0.07463726653055,0.17534333532399998,-0.03703903956500001
1.7178483695831345e+18,0.023316100240500005,0.06894681204294999,0.15672815927000003
1.7178483697831345e+18,-0.0814301844267619,0.0822140771755238,0.05899430062628571
1.7178483699831345e+18,0.007252764330499997,-0.21754664238600002,-0.1011478250095
1.7178483701831345e+18,0.21826123725350005,0.18002969227405002,-0.0068087803217999985
1.7178483703831345e+18,0.1309742418814,-0.0298675060275,0.006286086286000002
1.7178483705831345e+18,-0.07530462263630001,-0.025097635289499997,-0.07653098630234999
1.7178483707831345e+18,-0.0020996851825000025,-0.14760408263674998,-0.08440115079350001
1.7178483709831345e+18,-0.022859724750399997,0.09086675659095,-0.0754935109063
1.7178483711831345e+18,-0.015543396755449999,0.035683117128316,0.045725901704
1.7178483713831345e+18,0.15148405246750002,0.09979973418129998,0.105890986329
1.7178483715831345e+18,0.0568213817219,0.08800984200535002,0.04659692840890001
1.7178483717831345e+18,-0.19019784108300003,0.06655768451930001,0.0862277010424
1.7178483719831345e+18,-0.1943922275785,-0.013450297155699998,-0.056868055317205
1.7178483721831345e+18,-0.015913634096599995,-0.1653885837695,-0.0951587650005
1.7178483723831345e+18,-0.00346934849725,0.08830847791799999,-0.10618653890723999
1.7178483725831345e+18,0.06303143858934501,-0.010893838759000001,0.07038635951729999
1.7178483727831345e+18,0.1554450647485,-0.0930497023222,-0.0759899043498
1.7178483729831345e+18,0.08795857503644999,-0.08930537109424999,0.032533770156785
1.7178483731831345e+18,-0.16449566632749998,0.06771971730641499,0.05118519701305
1.7178483733831345e+18,-0.09703505948495,0.05652911313669999,0.002146383048079998
1.7178483735831345e+18,-0.050662383063499995,0.1156051658315,-0.07337938828755
1.7178483737831345e+18,0.129930421893,0.1028862331095,-0.037038263378249996
1.7178483739831345e+18,0.031109162454400003,-0.219751739495,0.023098641928975
1.7178483741831345e+18,0.14979802836600004,-0.054506069276949995,-0.030145038477849995
1.7178483743831345e+18,-0.024435108996499998,-0.0365879283528,-0.009710488003450004
1.7178483745831345e+18,-0.17861241477890005,-0.06447137284150001,0.0369693988928
1.7178483747831345e+18,-0.07585348794249999,0.08720792883005,0.016785837656530002
1.7178483749831345e+18,0.028751872741375008,-0.15370545713450004,-0.11532035213499998
1.7178483751831345e+18,0.05835657609429999,-0.090451735542,0.04960859978665
1.7178483753831345e+18,0.06783091723500001,-0.10338626368949999,-0.0017464976757999968
1.7178483755831345e+18,0.015315612534550003,-0.029628109324999995,-0.014882571244505
1.7178483757831345e+18,0.14587945136,0.167088412505,0.010901757608750003
1.7178483759831345e+18,-0.07867690544525,0.07339716816765,0.0593996660775
1.7178483761831345e+18,0.056291529145450006,0.0488666563659,0.04973720055926499
1.7178483763831345e+18,0.11197366548765,0.009245486099355,-0.013498628112214996
1.7178483765831345e+18,-0.28442327529000005,0.0177536715498,-0.0068715837778499985
1.7178483767831345e+18,-0.010653040681142858,0.13521084858571428,-0.06944198620109522
1.7178483769831345e+18,0.17244469821500003,0.067088549834535,0.0290268037689
1.7178483771831345e+18,0.17306143194499998,-0.127747773039,-0.041916544875999995
1.7178483773831345e+18,0.204094767565,-0.13962577059749998,-0.035855501703500006
1.7178483775831345e+18,-0.00920552391655,0.12320681698399998,0.0491359206399
1.7178483777831345e+18,-0.20949742994745,0.1707252125806,0.080963839779
1.7178483779831345e+18,0.32457242235499995,0.06375558152265001,0.036570975091800004
1.7178483781831345e+18,0.0536890770484,-0.02563356141554999,0.0011659986588500016
1.7178483783831345e+18,0.1066507360241,0.06616304579494998,0.018465903957499995
1.7178483785831345e+18,-0.75916834809,-0.22201114147749998,0.10180449952
1.7178483787831345e+18,-1.327138474535,0.055061846779499976,0.12547553155865002
1.7178483789831345e+18,-0.027030297008499998,0.25280001676049996,0.04760460257030001
1.7178483791831345e+18,0.002426237522999994,-0.05831344886749999,-0.034113390767
1.7178483793831345e+18,0.0415576354614,0.0216834481335,0.045879245701
1.7178483795831345e+18,-0.0311449323795,0.029442572128500006,0.01809401940575
1.7178483797831345e+18,-0.030518024042000002,0.00356636104435,0.00974932978258
1.7178483799831345e+18,-0.025570283363999996,0.0016132156102734991,0.00034098743924000006
1.7178483801831345e+18,-0.01776134326345,0.00848276206559,0.0005952604043900006
1.7178483803831345e+18,0.012268419551450001,-0.0021740800115200003,0.003271416731375
1.7178483805831345e+18,0.041826963982999996,0.013775507528800001,0.006266574258904999
1.7178483807831345e+18,0.022737373831,0.004661937902080001,-0.01199270300273
1.7178483809831345e+18,0.027816447523,0.011358624219200001,-0.0016705040878314998
1.7178483811831345e+18,0.01578840850892,0.006987297738450001,-0.00408066544761
1.7178483813831345e+18,-0.0044890854861,6.376573293999999e-05,0.006198398046514999
1.7178483815831345e+18,-0.0210556814447,0.005692165170765,-0.0002096714008899999
1.7178483817831345e+18,-0.0294859378595,-0.010523086425950002,-0.0030328383903055005
1.7178483819831345e+18,-0.014348519756899996,-0.00494233437309,0.005840638541999999
1.7178483821831345e+18,-0.018404891737699998,-0.0020726247749485,-0.0031787102665550003
1.7178483823831345e+18,-0.016444888245,-0.002318662038335,0.0067731037443350016
1.7178483825831345e+18,-0.002815535466625,-0.00099344660708,0.00025240714464999994
1.7178483827831345e+18,0.019332896452999997,0.0028319180681,-0.007262196094850001
1.7178483829831345e+18,0.036393713858000006,0.0030404012069555,0.013286170647870002
1.7178483831831345e+18,0.0382963619195,0.0163450649008,-0.00169178493648395
1.7178483833831345e+18,0.031212322787,0.0081471296896,-0.004327734949755
1.7178483835831345e+18,1.4568009549999987e-05,0.0005111551671600002,0.0025216895691399996
1.7178483837831345e+18,-0.005722828320180952,0.0019219904261619052,0.0018563608076428571
1.7178483839831345e+18,-0.0103243210127,-0.0022560198966100004,0.0005611698666834998
1.7178483841831345e+18,-0.026398925949499996,-0.006178291960315001,0.005838742479908999
1.7178483843831345e+18,-0.020810961210999998,-0.0021370102213750003,0.0023628106516099994
1.7178483845831345e+18,-0.014705709414499998,-0.00146846380953,0.0009408082697450002
1.7178483847831345e+18,-0.015307775791250002,-0.00446930668887,-0.0017557527843155
1.7178483849831345e+18,-0.0185485637285,-0.004641943553075,0.00029303909111
1.7178483851831345e+18,-0.00497031162411,4.527730918999996e-05,0.0027287214967550008
1.7178483853831345e+18,0.004080899478826,0.0024609854765775,-0.00676905310255
1.7178483855831345e+18,0.01754191727365,0.004032203694795,-0.004456718719645
1.7178483857831345e+18,0.026342676394499998,0.00455670072075,-0.0015761494054650001
1.7178483859831345e+18,0.026389960665499996,0.0099058632164,-0.0011430180865599998
1.7178483861831345e+18,0.016055512335749998,0.00371362949375,-0.006618202454399999
1.7178483863831345e+18,0.00177723178715,0.0011330382520124498,0.0009860197955649998
1.7178483865831345e+18,-0.012387146532800002,-0.003870850152815,-0.03126077369685
1.7178483867831345e+18,-0.024567775985999997,0.0005767287280250004,-0.009393912617809998
1.7178483869831345e+18,-0.011901502332635,-0.0636662093005,-0.0509937600235
1.7178483871831345e+18,-0.0681817656365,0.12220037648290001,-0.167830702621
1.7178483873831345e+18,0.05186262638305,0.1054493626595,-0.112892412885185
1.7178483875831345e+18,0.05471596140349999,0.0855685443625,-0.12917862552455
1.7178483877831345e+18,0.01666258490935,0.055022816593,-0.010139726616149999
1.7178483879831345e+18,0.011821679118049998,-0.009713235678749998,0.00967321545443
1.7178483881831345e+18,0.004036688210915,-0.0010229995008850003,0.013212524738050003
1.7178483883831345e+18,-0.00788986335428,-0.0030405955799800003,-0.0010420934297749999
1.7178483885831345e+18,-0.002361468895115,-0.0358480190395,0.01005517411994
1.7178483887831345e+18,0.009949559939339998,-0.03569953506885,0.03301215195115
1.7178483889831345e+18,-0.06390124536370001,0.004823060402850002,-0.00015626017147499991
1.7178483891831345e+18,-0.08385733290899998,-0.10848925310657001,0.051376289595949996
1.7178483893831345e+18,0.030471621640099998,-0.1561522741313,0.024314004795125
1.7178483895831345e+18,-0.017277611827165005,-0.0069684809422,0.0163061645234
1.7178483897831345e+18,0.024292570654415,0.00375454294211,0.031183251960399998
1.7178483899831345e+18,0.028221874684000003,0.0309908706225,0.011892289528950002
1.7178483901831345e+18,0.0218683389015,0.016405462526484997,0.008697371916420001
1.7178483903831345e+18,0.006878265144434998,0.008961464632999998,0.010863514815199999
1.7178483905831345e+18,-0.010074900416005,-0.012007783959049998,0.00827983208004
1.7178483907831345e+18,-0.021843549982,-0.020669838942800004,0.005695189902825
1.7178483909831345e+18,-0.019628171410952383,-0.003368349094280952,0.006990297182190476
1.7178483911831345e+18,-0.013762289565450003,-0.01215416181405,0.0054835031697
1.7178483913831345e+18,-0.01287285361895,-0.006446756690145,0.004791964220890001
1.7178483915831345e+18,0.0025664104848999994,-0.00097268059605,-0.01737180195153
1.7178483917831345e+18,0.030127530359999998,0.0155499149585,0.0102814583285
1.7178483919831345e+18,0.025812026859000005,0.01318412607345,0.00016827968060000004
1.7178483921831345e+18,0.010708017036545,0.015549992023799999,-0.007901008083209999
1.7178483923831345e+18,0.002143778593069999,-0.008963474149004998,0.0223242581357
1.7178483925831345e+18,-0.013004138763350001,0.00345633270308,-0.015819624205699996
1.7178483927831345e+18,-0.014253894845499998,-0.010453943308242,-0.0024794454279000004
1.7178483929831345e+18,-0.020918501727,-0.008125638175795,0.00222309945111306
1.7178483931831345e+18,-0.022579053278000007,-0.011739183583844999,0.004740054270494
1.7178483933831345e+18,-0.0125413073462,-0.0032640554416500005,0.0017608609867150002
1.7178483935831345e+18,0.010612354008249999,-0.0031809910752750004,0.000938986450925
1.7178483937831345e+18,0.03063543764849999,0.00478779126436,0.017720284952049997
1.7178483939831345e+18,0.01796538843745,0.008095150283599998,-0.0004095546160799997
1.7178483941831345e+18,0.012321494252800002,0.010935943294024999,0.0111864287053
1.7178483943831345e+18,0.0012888408498000002,0.008883799403550002,-0.0023071404487074996
1.7178483945831345e+18,-0.0025470281428550006,-0.008008043968595,0.002227447298285
1.7178483947831345e+18,-0.0035096253211735,-0.00964456862459,-0.002485798726025
1.7178483949831345e+18,0.0035167646358999992,-0.01160778565665,0.007278606042797
1.7178483951831345e+18,0.033446422648101,0.008103415818335,0.009777960874129998
1.7178483953831345e+18,-0.042781499113400005,-0.051476409637050004,5.1408982849998965e-05
1.7178483955831345e+18,-0.0365421867465,0.013540497871095,0.015781365986649996
1.7178483957831345e+18,-0.018537799129799998,-0.00686873995575,-2.6303011529999898e-05
1.7178483959831345e+18,0.0008178547721000001,7.333037258499995e-05,0.008274715039349997
1.7178483961831345e+18,0.01538296958905,0.01339551549202,0.0104673077816
1.7178483963831345e+18,0.011130974307629998,0.028984467498000006,0.006815405020250001
1.7178483965831345e+18,0.0150494401809,0.0197094257232,-0.004952900683525
1.7178483967831345e+18,0.01542327906875,0.012694820447630002,-0.0096916470679
1.7178483969831345e+18,0.0058355940624,0.006066685403045,-0.0065982048227787495
1.7178483971831345e+18,-0.0103204606567,-0.0035704892069500006,-0.0025668523213850003
1.7178483973831345e+18,-0.018354644208500002,-0.007267601997805001,0.00342883465922
1.7178483975831345e+18,-0.0198152214285,-0.00677431602985,-0.0012847885200999996
1.7178483977831345e+18,-0.017700822138499998,-0.013169345119699999,0.00680729347545
1.7178483979831345e+18,-0.009985499505619048,-0.007960249299380953,-0.0003450795663809524
1.7178483981831345e+18,-0.0003613057081022499,-0.001267845503805,-4.1759136389999966e-05
1.7178483983831345e+18,0.01967322586545,0.0021800205167350002,-0.004297987636754
1.7178483985831345e+18,0.0196455261665,0.0054150485783400005,-0.003735239856
1.7178483987831345e+18,0.013671385566714999,0.01923694573425,-0.0175170981329
1.7178483989831345e+18,0.012705979986049998,0.00858440092737,-0.0024303925694
1.7178483991831345e+18,0.003011056530835,0.008118142891714999,0.0014083261943999997
1.7178483993831345e+18,-0.002355149924175,-0.006306138978285599,-0.0057835442713599985
1.7178483995831345e+18,0.001783806184535,-0.0055860427029555005,0.008510719030299999
1.7178483997831345e+18,-0.0011629007871599999,0.003177756382465,-0.0001790735816500001
1.7178483999831345e+18,-0.030381047819499997,-0.011073264781999999,0.004952479299765001
1.7178484001831345e+18,-0.026066697436500003,-0.0097610579171,0.009060662731544
1.7178484003831345e+18,-0.013921139831399998,-0.0073332688768,-0.00249468842515
1.7178484005831345e+18,-0.00572879694485,0.007735756575345,-0.030993339326149998
1.7178484007831345e+18,0.014486540272450003,0.0006513072933300001,0.01293782711755
1.7178484009831345e+18,0.020784571534300002,0.013386003555849998,-0.00158178418605
1.7178484011831345e+18,0.017169586288,0.01575886197275,-0.018200211115555
1.7178484013831345e+18,0.011710635143050001,-0.002406120439985,0.03810093348185
1.7178484015831345e+18,0.0010695013273349999,0.007975422558750002,-0.021288404707
1.7178484017831345e+18,0.0010356064070999999,0.00013670597609999978,0.0035306489731200008
1.7178484019831345e+18,0.02158499178469,-0.014473905275949998,-0.0072152050505900015
1.7178484021831345e+18,-0.01279729646735,-0.06245848562855001,0.0169999453412
1.7178484023831345e+18,-0.067033370301,-0.02021062478335,-0.02240413210791
1.7178484025831345e+18,-0.00304187101483,0.0142658386665,0.025491181911800005
1.7178484027831345e+18,-0.009358629840650001,-0.018366571387399996,-0.0180237148661
1.7178484029831345e+18,0.014228459284300003,0.011454333014899998,0.021769572258800003
1.7178484031831345e+18,0.025046713649499997,0.017312042345500003,0.000158305577255
1.7178484033831345e+18,0.019523808779,0.025932668987,-0.0002334650854205002
1.7178484035831345e+18,0.0061301904957,0.018456094828550002,-0.006311692140684999
1.7178484037831345e+18,-0.00919582665688,-0.0044909106395250005,0.0008888442447799998
1.7178484039831345e+18,-0.01377988620695,-0.009081580169897501,0.0029521279763949997
1.7178484041831345e+18,-0.008427942940149997,-0.00556118017986,-0.0007854765543219998
1.7178484043831345e+18,-0.007474997383475001,-0.0036394031952874995,-0.0029046603302700005
1.7178484045831345e+18,-0.004072587372525001,0.0008655311304899998,0.0026187360026649997
1.7178484047831345e+18,-0.0015561771575545,-0.0015752140957524998,-0.002249914378745
1.7178484049831345e+18,-0.025593443010761902,-0.02289472755066666,0.025302395224809524
1.7178484051831345e+18,-0.0062427176801599996,-0.03446665299130001,-0.043452349859600004
1.7178484053831345e+18,0.022708162571799997,0.02413678181565,0.040214630542
1.7178484055831345e+18,0.0321823773439,-0.0010609497284500005,-0.049089000469499995
1.7178484057831345e+18,0.028781363740250004,0.024495150197199996,0.03241629993975
1.7178484059831345e+18,0.0141997120577,0.023833950281900003,-0.02208124824972
1.7178484061831345e+18,-0.0014026465185499998,-0.00039270313571,-0.0023026949638115003
1.7178484063831345e+18,-0.0144958228106,0.002395407739149,0.01216434650075
1.7178484065831345e+18,-0.02435293789075,-0.023088156478500002,0.011473946977600001
1.7178484067831345e+18,-0.022124509559350004,-0.012374421290185497,0.013162369499210003
1.7178484069831345e+18,-0.017915364215,-0.005975653405705,0.0019290608990500005
1.7178484071831345e+18,-0.00842505787165,-0.01255436483755,0.00919548052791
1.7178484073831345e+18,-0.0981114635924,-0.04694864279165,0.01796743106055
1.7178484075831345e+18,0.0035415245044695003,0.0016072268251999995,0.06856924146449998
1.7178484077831345e+18,0.028478656604285002,0.02329166984265,0.038193194195500005
1.7178484079831345e+18,0.0211077996868,-0.0292769626546925,-0.020400644343935
1.7178484081831345e+18,0.02357079943205,0.046726745425185,0.0017167941319999977
1.7178484083831345e+18,-0.020687615964599997,0.00449706080855,0.022042986982999994
1.7178484085831345e+18,-0.022370300843405,0.014243163582044999,0.017541068001149997
1.7178484087831345e+18,0.23591620512300002,0.024832235093050003,9.289289610000094e-05
1.7178484089831345e+18,0.71406291424,0.044956796242500006,0.092757211512105
1.7178484091831345e+18,0.7610729276850001,-0.2786515303,-0.2189987692965
1.7178484093831345e+18,-0.016478659818,-0.44325617104,-0.16180002485100003
1.7178484095831345e+18,-0.15428270543224998,-0.0904973164135,-0.07806115872145
1.7178484097831345e+18,-0.049924605902000006,0.15710663772244998,0.0034134631142199974
1.7178484099831345e+18,-0.144631695419,-0.007398988118500002,0.0387461303785
1.7178484101831345e+18,-0.24919543712499997,0.1019288188557,0.038930975551
1.7178484103831345e+18,-0.003974896905900001,-0.10766327732779998,-0.10528973578645
1.7178484105831345e+18,0.026803798387669997,-0.2104072121915,-0.2433088079095
1.7178484107831345e+18,-0.08745548090900002,0.09483687922440001,0.04589930870455
1.7178484109831345e+18,-0.011845761075650002,0.1330707532455,0.05828246494685
1.7178484111831345e+18,0.21725071575249996,0.055808539734200004,0.0176983268228
1.7178484113831345e+18,-0.07959011029554999,0.12533275978300001,0.20322268829499998
1.7178484115831345e+18,0.050622534475,0.028425053423999997,-0.011961609704199998
1.7178484117831345e+18,0.24151063673700005,-0.25067287622690004,-0.22912329118549998
1.7178484119831345e+18,0.06465684492680952,-0.12254269133000002,-0.02521473692795239
1.7178484121831345e+18,-0.016385640086015,0.20474324245949999,0.156880345951
1.7178484123831345e+18,0.09964265111099999,0.085349728722,-0.080588100192
1.7178484125831345e+18,0.10468740954210001,0.010690587525249996,0.1021324817076
1.7178484127831345e+18,-0.15387730878849998,0.093105229036,0.098785054041375
1.7178484129831345e+18,-0.06515093492434999,0.06295859671020002,0.0132327169314
1.7178484131831345e+18,-0.153190023683,-0.1431271671395,-0.035848249579945
1.7178484133831345e+18,0.028289063879000004,-0.190794550991,-0.08166949213264998
1.7178484135831345e+18,0.0627452280776,-0.007079047700300001,0.0134148475731
1.7178484137831345e+18,0.1972371227945,0.10579033811099998,-0.004608230700249998
1.7178484139831345e+18,-0.124126384128,-0.0925337815227,0.0018015938142324993
1.7178484141831345e+18,-0.05368129620210001,0.22370398272849998,-0.09014340872200001
1.7178484143831345e+18,-0.16826670466850002,-0.14828290573063,0.03024972524825001
1.7178484145831345e+18,-0.0630637325335,-0.09016833067959998,0.08160360251130001
1.7178484147831345e+18,0.12696298845050003,0.09072432536450001,-0.0008786593157399993
1.7178484149831345e+18,0.14622959569349997,0.28241424486,0.051271173314100006
1.7178484151831345e+18,0.184831129936,0.06992139960919999,0.011868515628865
1.7178484153831345e+18,-0.10250713828100003,0.0391779582942,0.09976762691600001
1.7178484155831345e+18,-0.004015496653350001,0.022149960416250003,-0.004201426775149998
1.7178484157831345e+18,-0.12707757018149998,-0.129556153066,-0.06255864218690001
1.7178484159831345e+18,0.03763292841425,0.0743354508565,-0.06141384824738001
1.7178484161831345e+18,0.14154817968747002,-0.022999780252,-0.039029461148
1.7178484163831345e+18,0.1817178722345,0.04202333418835,0.06924173338000002
1.7178484165831345e+18,-0.08436615496939999,-0.04986650273265001,0.05073501881935001
1.7178484167831345e+18,0.009924257290285,0.18752583072575,0.07645250034785
1.7178484169831345e+18,0.06355834678250001,0.058707240136999995,-0.008563515792342002
1.7178484171831345e+18,-1.1965186111500001,0.07167775568950001,0.06998825510600001
1.7178484173831345e+18,-0.3788781678915001,-0.133470357481,-0.0821588176939
1.7178484175831345e+18,0.08025595760500001,-0.19668513973699997,0.15043169653869998
1.7178484177831345e+18,-0.0853565891285,0.1371982038995,0.083605540707615
1.7178484179831345e+18,-0.01263032949089,0.066219452327,0.0696903392908
1.7178484181831345e+18,-0.0433335702292,-0.06634515689219998,-0.029137227864534997
1.7178484183831345e+18,-0.022454761544320002,0.00972087634745,0.034811166044715
1.7178484185831345e+18,-0.0088834052317,0.008412379148205003,-0.017501428587095004
1.7178484187831345e+18,0.023035632165999995,0.013465405013650001,0.021145108374525
1.7178484189831345e+18,0.03342057652699999,0.013267825294410002,-0.015599227720435
1.7178484191831345e+18,0.023407974634714286,0.01293635699842857,-0.012567565025080954
1.7178484193831345e+18,0.01487020920115,0.015131510631399999,-0.013741755182699999
1.7178484195831345e+18,-0.00286600560605,0.00387613682507,-0.001684845882245
1.7178484197831345e+18,-0.014988185091949999,-0.00858107008935,0.002649172872835
1.7178484199831345e+18,-0.02626949594075,-0.010251228989649998,0.01137342281226
1.7178484201831345e+18,-0.019560068519000003,-0.01359008787065,-0.00618574563677
1.7178484203831345e+18,-0.020344362594,-0.0039037649808649987,0.0030655500245899995
1.7178484205831345e+18,-0.011877146502805,0.0005424689735714999,0.0013186461117949996
1.7178484207831345e+18,0.043780559301,0.014633734617150002,-0.00397058350929
1.7178484209831345e+18,0.040330095124500004,0.011469002164090001,-0.014304692048848999
1.7178484211831345e+18,0.004321505106045,-0.0035116395680100006,0.0003545269192000002
1.7178484213831345e+18,-0.0018093509948405,-0.00502935801027,-0.009831861242945
1.7178484215831345e+18,-0.021408331324500002,-0.01361717916935,0.0106519318309
1.7178484217831345e+18,-0.00417222414948,0.00570585072287,-0.00742415220047
1.7178484219831345e+18,-0.005070927646049999,-0.00245715244422,0.00625346902045
1.7178484221831345e+18,-0.007308543514615,0.0008640086334300003,-0.020549800359049998
1.7178484223831345e+18,-0.0025796041006499997,0.0031278041018199996,0.0186070399828
1.7178484225831345e+18,-0.0077654912080399995,0.0030631202098450002,-0.0218358791785
1.7178484227831345e+18,-0.0071205595515,-0.006777736707505,0.030497861147949994
1.7178484229831345e+18,-0.031087219249499996,0.00403942717232,-0.013781675359250001
1.7178484231831345e+18,-0.013261972472700004,-0.0038680821043950006,0.0056107756916
1.7178484233831345e+18,0.022679456823300005,0.010516586835655,-0.005058069375685
1.7178484235831345e+18,0.06442837044899999,0.0378245421675,-0.025421720136999996
1.7178484237831345e+18,0.0070905486115,0.0086410266571,-0.03363200998924999
1.7178484239831345e+18,-0.0012175755800500005,-0.0228224468309,0.0469258962185
1.7178484241831345e+18,-0.0081035792243895,-0.0033587728634499998,-0.021390699961335
1.7178484243831345e+18,5.318815816500002e-05,0.0015251162461199998,0.01038916741239
1.7178484245831345e+18,-0.008211437386580001,-0.004458214066245,0.0013402358399000002
1.7178484247831345e+18,-0.0104558737998,-0.0055734046091455,0.00094773162875
1.7178484249831345e+18,-0.014385510387255,-0.0024713107269150004,0.0044547581406450005
1.7178484251831345e+18,-0.01615431565329,-2.1395971972499954e-05,0.00298044084921
1.7178484253831345e+18,-0.005808900418944999,-0.0014822211873149996,0.0038109116489000007
1.7178484255831345e+18,-0.0270530714655,-0.0029242297752949996,-0.0007606363887250002
1.7178484257831345e+18,-0.015240124612999997,-0.0030987058964349994,-0.005811768363449999
1.7178484259831345e+18,0.030371956061499998,0.021351788751999997,0.001040400058401
1.7178484261831345e+18,0.02884926978438095,0.014100023673142857,-0.0021580459517619053
1.7178484263831345e+18,0.021943118144199997,0.013884110003299999,-0.00741225143573
1.7178484265831345e+18,0.015468166908050002,0.01594141507585,-0.0028839119157249996
1.7178484267831345e+18,0.0012544205355249998,0.00384079430946,-0.0007720489839510002
1.7178484269831345e+18,-0.01432835529575,-0.01052472293395,0.0018167745556150004
1.7178484271831345e+18,-0.014870189037199999,-0.015290120152,0.00929686996345
1.7178484273831345e+18,-0.021110280789500002,-0.014212716603749998,0.0056602417700300015
1.7178484275831345e+18,-0.029673481360500003,-0.0129824160824,0.011436910554750001
1.7178484277831345e+18,-0.0227998121165,-0.009048833710095,0.0037640116299500004
1.7178484279831345e+18,-0.00905973794885,-0.0036981155339600004,0.0007147513242799997
1.7178484281831345e+18,0.013259272067699997,0.0059888778084455,-0.007628619589749999
1.7178484283831345e+18,0.021351131959409998,0.00740028703625,-0.0048961426252150005
1.7178484285831345e+18,0.024110617814,0.01881251763475,-0.003965841742965001
1.7178484287831345e+18,0.018638361617499998,0.0121858841046,-0.0060056698742500005
1.7178484289831345e+18,-0.00339268093235,-0.00804447599145,0.000825704504412
1.7178484291831345e+18,-0.0217794395636,-0.05388871319599999,0.006975355640299999
1.7178484293831345e+18,-0.013792513252144997,-0.014637019386450003,0.008576302975749999
1.7178484295831345e+18,-0.004269629640745001,0.002914757677502,-0.001966248819345
1.7178484297831345e+18,-0.004578896315868,0.0039750331603,0.0031209592009249993
1.7178484299831345e+18,-0.0325252206065,0.01317028057605,-0.0015298859393549995
1.7178484301831345e+18,-0.019919041916,0.007809874957220001,0.00309967068015
1.7178484303831345e+18,0.00016761657929499976,0.0019534823803774998,-0.0037710270376734994
1.7178484305831345e+18,0.0196757544754,0.006417217926640002,-0.0035872006551999993
1.7178484307831345e+18,0.023875017789000003,0.010230686783416501,-0.0019507737903499997
1.7178484309831345e+18,0.022385742749,0.019333576505499998,-0.00793910655255
1.7178484311831345e+18,0.01289440200285,0.012038759094699997,-0.0014071077836999997
1.7178484313831345e+18,-0.0025607681829400005,0.0038347011782,-0.001791306859006
1.7178484315831345e+18,-0.015236283141000001,-0.008042824105924998,0.008096597431120001
1.7178484317831345e+18,-0.025592230352500002,-0.019351078105,0.005413638785630001
1.7178484319831345e+18,-0.034992700163000004,-0.010884658871049998,0.006501585815750001
1.7178484321831345e+18,-0.019356475537,-0.007231109356600001,-8.864198904999944e-06
1.7178484323831345e+18,0.01135170365405,0.0043049166389499995,-0.00569126309105
1.7178484325831345e+18,0.0345431764615,0.010922605544499999,-0.007378316455055001
1.7178484327831345e+18,0.0201969865587,0.014199236664100001,-0.0068743112993969995
1.7178484329831345e+18,0.01720022507965,0.016200926713000004,-0.004170532853325
1.7178484331831345e+18,0.00795282362924,0.008958946348800002,-0.0028240822358305
1.7178484333831345e+18,-0.013880296799757143,-0.009447585819123808,0.004042695121476191
1.7178484335831345e+18,-0.020653192139500003,-0.016932462644800004,0.0033930058097450004
1.7178484337831345e+18,-0.01885286569595,-0.014538242713399999,0.018696136459249998
1.7178484339831345e+18,-0.022803831986,-0.006989555331420001,-0.004839582177419999
1.7178484341831345e+18,-0.02023938740595,-0.0036660575195050006,0.0007608365732349999
1.7178484343831345e+18,0.0001186317595650006,0.0008400603316000002,-0.0011215238396
1.7178484345831345e+18,0.0281648772765,0.0125340780243,-0.00860287450475
1.7178484347831345e+18,0.024676465288250002,0.010272181336899998,-0.0057380758574
1.7178484349831345e+18,0.0139075245356,0.010028641001715,-0.00478673785649
1.7178484351831345e+18,0.0134365573766,0.0140172259182,-0.0014545884418920001
1.7178484353831345e+18,-0.00147085636283,0.0023108551978149997,6.267146086099997e-05
1.7178484355831345e+18,-0.02124823851675,-0.01545404538075,0.004735189263865
1.7178484357831345e+18,-0.030663947667499997,-0.01297943182365,0.00601038822207
1.7178484359831345e+18,-0.017632029485000002,-0.007783012242950001,0.006434887076915001
1.7178484361831345e+18,-0.0161658548283,-0.004969656199679999,0.0009986188814589496
1.7178484363831345e+18,-0.0059162657880705,-0.0009247295646699998,-0.006043970153950001
1.7178484365831345e+18,0.026517584453499998,0.01240261043485,-0.004777279996650001
1.7178484367831345e+18,0.028707430699000003,0.0109978724962,-0.007308253878650001
1.7178484369831345e+18,0.013802182151199998,0.009684456003585,-0.0004391508201245997
1.7178484371831345e+18,0.0061907445662405,0.00534285475127,-0.0025365981332100005
1.7178484373831345e+18,0.00043761808181499984,0.005896754224485,0.00195916882368
1.7178484375831345e+18,-0.013119542645549997,-0.01198623364285,0.0042751771613075
1.7178484377831345e+18,-0.028466373868999993,-0.015238746675149998,0.007435560749824999
1.7178484379831345e+18,-0.0225370616645,-0.0134042632533,0.004729513250715
1.7178484381831345e+18,-0.013338223099600002,-0.004172541014734,0.00040695007347499995
1.7178484383831345e+18,-0.005780079512810001,0.00027888826451,-0.00014173180096499995
1.7178484385831345e+18,0.019449253148,0.007056315993615001,-0.006416472864760001
1.7178484387831345e+18,0.030402327608499997,0.01530482904015,-0.0029495012656210002
1.7178484389831345e+18,0.021115070953999997,0.015855855494000003,-0.0064881891945
1.7178484391831345e+18,0.005898626899244999,0.007783410208595,-0.0022778729238770003
1.7178484393831345e+18,-0.0083421807851,0.000830465034216,0.0030752957681999997
1.7178484395831345e+18,-0.0129099845888,-0.011268732197050001,0.0051115879847
1.7178484397831345e+18,-0.0169371176974,-0.01240593746715,0.005164134869055
1.7178484399831345e+18,-0.029630720893999995,-0.015662445546500002,0.00663284698975
1.7178484401831345e+18,-0.01533605298015,-0.0038728822660600002,0.00502286452121
1.7178484403831345e+18,-0.0067529672691238095,-0.002848551170752381,-0.0024457717913809523
1.7178484405831345e+18,0.01460430989937,0.00687267101015,-0.00529597967953
1.7178484407831345e+18,0.0327595447185,0.008365768176849999,-0.00708842269365
1.7178484409831345e+18,0.038220281526050004,0.025888276845499998,-0.00662626338895
1.7178484411831345e+18,-0.010103088063774999,-0.0457596187471,0.01740244409405
1.7178484413831345e+18,-0.00779664329061,0.0013380298618,-0.014955696172854999
1.7178484415831345e+18,0.002461547724335,0.017357909261,0.006092364441255
1.7178484417831345e+18,-0.014457911718550001,0.006954594293999999,-0.00088740896037
1.7178484419831345e+18,-0.012066074816585,-0.01588189710175,0.0007615130860049998
1.7178484421831345e+18,-0.027207905426500006,-0.007443998143199998,0.003988594276544999
1.7178484423831345e+18,-0.018026076583350002,-0.0018679503669350003,0.0004552438039590001
1.7178484425831345e+18,0.0008996138695000001,0.00356982302628,-0.0028622100842235
1.7178484427831345e+18,0.0205606949053,0.01275196750675,-0.0029851225209
1.7178484429831345e+18,0.024646920805000003,0.015605566323949998,-0.005052347993874999
1.7178484431831345e+18,0.020497856196,0.0175642766065,-0.0041064512814399995
1.7178484433831345e+18,0.004134666727195001,0.0009264567107800002,0.001674459615055
1.7178484435831345e+18,-0.0020974019947599997,-0.03395727067915,0.0026258425084069994
1.7178484437831345e+18,-0.0045387287157,0.00824425505727,0.006390855251800001
1.7178484439831345e+18,-0.0013264282375500002,-0.0006172384630149999,-0.00056913575089
1.7178484441831345e+18,-0.006578740064260001,0.0004064405918550001,0.00214750484434
1.7178484443831345e+18,-0.01126751318835,-0.003303510460319999,-0.0025566068768499996
1.7178484445831345e+18,0.00032399942862399995,-0.0004639129124980001,0.0037378070408300005
1.7178484447831345e+18,-0.009481416811770001,-0.0046177117708095,-0.001505745924075
1.7178484449831345e+18,-0.011606653588115,-0.002710842667552,0.0027873767248499993
1.7178484451831345e+18,-0.005137716082215001,-0.0014412576159100003,0.00266165825477
1.7178484453831345e+18,-0.012448252934645,-0.00012921068123000005,-0.0026521912542300003
1.7178484455831345e+18,-0.011707086448250002,0.0017246384814095,-0.00772184374845
1.7178484457831345e+18,0.014236429752400002,0.00495366839995,-0.004025543655945001
1.7178484459831345e+18,0.024554073345000003,0.019834621832500003,-0.003738454416505
1.7178484461831345e+18,0.019489415921499997,0.011964152055599999,-0.004143624613
1.7178484463831345e+18,0.009070368006205,0.008109976205785,-0.0029770359513850006
1.7178484465831345e+18,0.0007617989205684998,0.007615338166650001,-0.004852209122645
1.7178484467831345e+18,-0.008203504787659998,-0.0019445658164950002,0.0025926205911550003
1.7178484469831345e+18,-0.014079382750550002,-0.08058522045649999,0.0253735702951
1.7178484471831345e+18,-0.06149997227,-0.0024733235598999983,0.002442521150455
1.7178484473831345e+18,-0.014375436718840002,-0.011017023981899998,0.00608391305427
1.7178484475831345e+18,-1.6687232519048017e-05,0.013640265537561905,-0.0001443837505904766
1.7178484477831345e+18,0.022044594213149995,0.034384023584500004,-0.0015589634124149995
1.7178484479831345e+18,0.0287565159615,0.01333999325825,-0.015236253063955004
1.7178484481831345e+18,0.019252351427200002,0.021166207269,-0.011952433945550001
1.7178484483831345e+18,-0.019800334871559997,-0.00623142375219,0.00558167053706
1.7178484485831345e+18,-0.027920781866999998,-0.0162543515912,-0.01741882683685
1.7178484487831345e+18,-0.012451783410925003,0.0045709422893,0.005555720493085
1.7178484489831345e+18,-0.04490845078103,-0.018353587353678,-0.02132477767399
1.7178484491831345e+18,0.053148034029,-0.028905655729249996,-0.16370130070000002
1.7178484493831345e+18,0.46613735034000003,0.053785130893449995,0.033846310337575
1.7178484495831345e+18,1.1063484699049997,0.11027193720850001,-0.0638370149481
1.7178484497831345e+18,0.9220636523945,0.457314435395,-0.08873741961750001
1.7178484499831345e+18,-0.042025408054,0.47790776314055006,0.1388417065205
1.7178484501831345e+18,-0.144648460488,-0.18697554004371003,0.096050823984
1.7178484503831345e+18,-0.534682376685,-0.39290428309500003,-0.07363776452835
1.7178484505831345e+18,0.16684906872900002,-0.2338139574095,-0.13641556054700002
1.7178484507831345e+18,0.32656690309650005,-0.21623596330255,-0.060394445778105
1.7178484509831345e+18,-0.03270908765609,-0.22060819603550003,-0.049126103299849996
1.7178484511831345e+18,-0.10270295129010001,-0.04453526911900001,0.03602349938044501
1.7178484513831345e+18,-0.14266331932,0.10418207529599999,0.025644915690100002
1.7178484515831345e+18,-0.10140909627249999,0.14576337710124998,0.1412884669375
1.7178484517831345e+18,-0.34975889623,0.01955964226985501,0.08506242963579999
1.7178484519831345e+18,-0.043754347801750006,-0.10537589299164998,-0.145667318999
1.7178484521831345e+18,0.08242516939774999,-0.32741636484000003,-0.10871763694450001
1.7178484523831345e+18,-0.12170425407065,-0.2558738172,-0.091425590781
1.7178484525831345e+18,0.0504049079505,-0.07360655046095002,-0.06503732307255
1.7178484527831345e+18,0.09688071172975,0.21497564716349998,0.054353691260549994
1.7178484529831345e+18,-0.23300691638149998,0.14627460646450002,0.07745699686635
1.7178484531831345e+18,-0.0434165195769,0.1800705613595,-0.036336513549
1.7178484533831345e+18,-0.017454555278500004,0.28851986005999997,-0.038501193364249994
1.7178484535831345e+18,0.14752467693849997,-0.03461235814465,-0.0497841330628
1.7178484537831345e+18,0.18755415529,-0.02787938378525,0.045001850421550006
1.7178484539831345e+18,0.069700729983,-0.1493178659025,0.015831047901599997
1.7178484541831345e+18,-0.14534660130350002,0.012401584064950002,0.12899493255134
1.7178484543831345e+18,-0.0565718723155,-0.016630181203,-0.027129160845850004
1.7178484545831345e+18,-0.16878467727095234,-0.0817212903872381,-0.1202562759995238
1.7178484547831345e+18,-0.10183884641530001,0.071050544501,-0.03591753070182
1.7178484549831345e+18,0.05847048595490001,0.1710160308985,-0.030530363506249998
1.7178484551831345e+18,0.20334802493,-0.067229039503,0.03283464738675
1.7178484553831345e+18,-0.10769448419750001,-0.14072718250610503,0.009023460838499999
1.7178484555831345e+18,0.029778570831000002,0.0035295425274549956,-0.003550985548449999
1.7178484557831345e+18,-0.05347865950345001,0.003375290915149996,-0.00937175718075
1.7178484559831345e+18,0.0265473243518,0.07763174865599999,-0.00511656188385
1.7178484561831345e+18,0.26019839197,0.0697507210065,0.035466289329949996
1.7178484563831345e+18,-0.1991735707025,-0.13387303114649998,0.0812941890693
1.7178484565831345e+18,0.015492184457000003,-0.053799276518999996,0.071550698203
1.7178484567831345e+18,-0.295261191625,0.1951373158045,0.54441142829
1.7178484569831345e+18,-0.846402488615,0.227576695378,0.65092930942
1.7178484571831345e+18,-0.5137726649600001,-0.2000421975695,0.21136768953699997
1.7178484573831345e+18,-0.1692495064784,-0.1643592504752,-0.13450112661969998
1.7178484575831345e+18,0.677810531875,0.07377269598500001,-0.0520984075526
1.7178484577831345e+18,0.28745548910999996,0.241259414421,-0.133042976359
1.7178484579831345e+18,-0.10139266923049998,0.022903604186675,0.0990100018653
1.7178484581831345e+18,-0.04541177707655,0.0407637597083,-0.005889377550095
1.7178484583831345e+18,-0.09128648980465001,-0.02543924794380001,-0.006236032048349999
1.7178484585831345e+18,-0.009736891510450001,0.064588204022,-0.13620247914349998
1.7178484587831345e+18,0.168995642857,0.15689319931100001,-0.061467413187349995
1.7178484589831345e+18,0.33722248524,0.08585162641444999,-0.05784649294836199
1.7178484591831345e+18,0.27570009976,0.10618592290819999,-0.013685553653165
1.7178484593831345e+18,0.10031999815700002,-0.083279865460175,-0.016591736619975005
1.7178484595831345e+18,0.29837183244500004,0.00852137524250001,0.029802814982999998
1.7178484597831345e+18,0.814249815045,0.03991137237755,0.9830758246864999
1.7178484599831345e+18,1.92454380106,-2.3661672204650004,1.1311842972904
1.7178484601831345e+18,3.5964547007550003,-6.85376365185,2.0082973040949996
1.7178484603831345e+18,-2.561820787565,-6.872643423049999,-3.019216202165
1.7178484605831345e+18,0.62380748242,-5.83288428785,-3.41710797545
1.7178484607831345e+18,1.5802526831205,-2.6315028071,-2.25605146885
1.7178484609831345e+18,0.708777122724,-1.6045316655345,-1.234386074535
1.7178484611831345e+18,-0.4134175121789999,-0.459849110625,-0.7090875819550001
1.7178484613831345e+18,-0.14835505434034996,0.004067462774500002,-0.26476377099
1.7178484615831345e+18,0.023250577829200002,-0.20881704659000003,-0.20111710727499998
1.7178484617831345e+18,0.12630719656190478,-0.10831033136142855,-0.4437903946333333
1.7178484619831345e+18,0.06237472495449999,-0.5684076935,-0.402432147415
1.7178484621831345e+18,-0.5485969830394999,-2.32643787863,-0.9364230513949998
1.7178484623831345e+18,-0.8793053643761499,-4.0850958705,-3.5709658384500003
1.7178484625831345e+18,-2.2413500755649998,-5.0914568664,-2.6839050055
1.7178484627831345e+18,0.04628734260025501,-1.260726789345,-1.156964284165
1.7178484629831345e+18,-0.19360160790999997,-0.036900184913,-0.10374945209535
1.7178484631831345e+18,-0.13749795517949998,0.011286005186500001,0.10031435512915002
1.7178484633831345e+18,-0.005654956115775002,0.10956808738700001,0.057890028500900005
1.7178484635831345e+18,0.0768504694055,0.06146275428800001,-0.084655384999
1.7178484637831345e+18,0.04863266106665,0.0090557036449,-0.004730327471999999
1.7178484639831345e+18,-0.06804004811465,-0.019767358823254998,-0.05481847181155001
1.7178484641831345e+18,-0.05260230658565,0.0237164635798,0.05287576951149999
1.7178484643831345e+18,-0.093266053499,0.013198667240499996,0.09862813950399998
1.7178484645831345e+18,-0.0381528979195,0.017344245454199998,0.036867306196349994
1.7178484647831345e+18,0.09864172693449999,0.056200113148999996,-0.03935847061759
1.7178484649831345e+18,0.028407242430500003,0.06489390730899999,0.0014208228281500028
1.7178484651831345e+18,-0.00387127953635,0.132056378217,0.0008943387729999988
1.7178484653831345e+18,0.0090157710597,-0.018953872065,0.008853673236500001
1.7178484655831345e+18,0.032324663456149996,-0.011497729906505001,-0.02865620021825
1.7178484657831345e+18,0.02946584699734999,-0.0014361050444749997,-0.023170895397785
1.7178484659831345e+18,-0.028337982447624997,-0.0171404224359,0.000506865303165
1.7178484661831345e+18,-0.0660047906445,-0.065390431134,0.03253842609473
1.7178484663831345e+18,0.07258480223699999,0.12065960805295,0.0011291953860999985
1.7178484665831345e+18,0.07840131377455001,0.030277675926750004,0.07250154740904999
1.7178484667831345e+18,0.03286303782429499,-0.06907137185250001,0.15993292034
1.7178484669831345e+18,0.002618311950250001,-0.09584203698199999,0.05838932702250001
1.7178484671831345e+18,-0.0099781717286,-0.0181036630993585,0.0679649981655
1.7178484673831345e+18,-0.049547141045499996,-0.0026435073232099994,0.016327444614685
1.7178484675831345e+18,-0.12977939262080002,-0.22173911072000002,0.09936714005899999
1.7178484677831345e+18,0.029193366736550003,-0.014259405386500001,-0.02224832218465
1.7178484679831345e+18,-0.12772252560000003,0.06731073889085001,-0.048802933202
1.7178484681831345e+18,0.026436796456,0.197789810595,-0.16257290133
1.7178484683831345e+18,-0.024949534338999997,0.22253364771,-0.029863180357749996
1.7178484685831345e+18,-0.21438556388499994,0.20028679073500003,0.22973035573350004
1.7178484687831345e+18,-0.33505383152249996,0.17513555213600002,-0.021635816259500007
1.7178484689831345e+18,-0.17361176785857144,0.036729584272,-0.09667553386804763
1.7178484691831345e+18,0.1593147364045,0.352083271375,-0.373856750632555
1.7178484693831345e+18,0.27261754942699995,0.034963487651000026,0.25562782269549994
1.7178484695831345e+18,-0.2000950364116,0.6930925570199999,-0.6127803668599999
1.7178484697831345e+18,0.5906578571289999,1.7297247885999998,-1.9781290531200004
1.7178484699831345e+18,-1.186379487775,0.7111849969865001,-2.24680455325
1.7178484701831345e+18,-0.055772071365000044,0.32003245008199993,-1.471226185485
1.7178484703831345e+18,-0.11940891894600003,-4.68701968775,-0.39518879446199995
1.7178484705831345e+18,-0.767388858625,-0.14430988169950001,1.183028764711
1.7178484707831345e+18,-0.1652045166195,-0.62243978677,0.2426413845405
1.7178484709831345e+18,-0.48293900914400006,0.49073133403249997,0.28879164158549997
1.7178484711831345e+18,-1.692285542875,0.14284388143599996,2.6226471216350005
1.7178484713831345e+18,-0.04086963383000001,-1.2941903993000001,1.0491872593099998
1.7178484715831345e+18,-0.473432175075,-0.19579191358250006,0.6045989807654999
1.7178484717831345e+18,-0.19121770859249998,0.22671693078800007,-0.0459974813737
1.7178484719831345e+18,0.2966851308965,0.20100510996669999,0.10676587316650002
1.7178484721831345e+18,-0.049759528069549995,0.026837273521365,0.0607996813532
1.7178484723831345e+18,0.17366872809379,0.12493912800100002,0.5166347548399999
1.7178484725831345e+18,0.9645940394,-1.0638372227595,-2.29701649179
1.7178484727831345e+18,1.0114207133445001,-1.2129901911299998,-2.6039321064599994
1.7178484729831345e+18,-0.47107975929499996,0.45876652484550007,-0.61516646296
1.7178484731831345e+18,0.4286624893,-0.73674270585,-0.16614257112980002
1.7178484733831345e+18,-0.573522254875,1.0675466613685,-0.40965764603500004
1.7178484735831345e+18,-0.1247691130875,0.5462874377806249,0.103642088475375
1.7178484737831345e+18,,,
