Timestamps,Acc_X,Acc_Y,Acc_Z,Label
1.7177051201563507e+18,-0.06837032313165,4.88960451505,7.305034103350001,30s-1
1.7177051203563507e+18,1.3807886353155,0.3934343490349999,6.3510828552,30s-1
1.7177051205563507e+18,9.75693534865,4.943185592625,9.87034700805,30s-1
1.7177051207563507e+18,11.4239063648,-0.086520080506,6.754883148200001,30s-1
1.7177051209563507e+18,11.19933586145,-3.0640532684499995,5.100485984749999,30s-1
1.7177051211563507e+18,6.252430503899999,0.8410260772074999,6.99568739325,30s-1
1.7177051213563507e+18,3.5824552459500003,7.952258193949999,5.7961643142,30s-1
1.7177051215563507e+18,-0.30695169064,6.841732544,4.9109201886400005,30s-1
1.7177051217563507e+18,-1.15110626214,8.446597710100002,2.8163184356000004,30s-1
1.7177051219563507e+18,-1.1626165369210526,9.42337766889474,4.385469841952632,30s-1
1.7177051221563507e+18,-1.01718724819,9.20128333285,1.6190556564450005,30s-1
1.7177051223563507e+18,-3.74795109555,8.01622766885,1.928746650755,30s-1
1.7177051225563507e+18,-4.881820701600001,9.3042691726,-1.107314826982,30s-1
1.7177051227563507e+18,-4.0674616699,8.6611989443,-1.15765514373,30s-1
1.7177051229563507e+18,-4.539258064350001,8.698883079500002,-1.2312271499299998,30s-1
1.7177051231563507e+18,-3.9799910659000006,8.809570404,-1.09042245489,30s-1
1.7177051233563507e+18,-1.6327970809545,9.8844402007,-0.042661285441,30s-1
1.7177051235563507e+18,-2.297998786815,10.28116021705,0.76931021108,30s-1
1.7177051237563507e+18,2.484856398657895,8.674548026368422,7.861194666894737,30s-1
1.7177051239563507e+18,1.95649145505,7.5512421112,5.043843772899999,30s-1
1.7177051241563507e+18,2.32591573328,7.919416488600001,6.89514147945,30s-1
1.7177051243563507e+18,-4.977943313515,9.0008276823,2.2210288468200003,30s-1
1.7177051245563507e+18,-3.97644344325,8.4525702895,-3.7426970214,30s-1
1.7177051247563507e+18,-1.2825628967895002,9.844772689349998,-0.994464500442,30s-1
1.7177051249563507e+18,-2.880662132275,9.4432925713,-2.28143573001,30s-1
1.7177051251563507e+18,-1.46999562842,10.1539098357,-0.24563170621,30s-1
1.7177051253563507e+18,-2.2014794998200005,8.8227355265,0.3726874921194999,30s-1
1.7177051255563507e+18,-1.510390705243158,10.656655161526317,-0.3273377187636843,30s-1
1.7177051257563507e+18,-1.40757543184,8.81712219995,1.971512718155,30s-1
1.7177051259563507e+18,-1.2958253173799998,9.5588522645,2.624896499475,30s-1
1.7177051261563507e+18,-0.8607849884399998,9.360873962399998,2.7524911652500004,30s-1
1.7177051263563507e+18,-0.872071517965,9.37553597275,2.8663893126899995,30s-1
1.7177051265563507e+18,-0.5991590423615,9.31423844205,3.0012887879,30s-1
1.7177051267563507e+18,-0.834088005034,9.2810823895,3.2612307358000003,30s-1
1.7177051269563507e+18,-1.11173064418,9.06579258725,3.3629891281499997,30s-1
1.7177051271563507e+18,-1.0805280302650002,9.15304614255,3.490486496,30s-1
1.7177051273563507e+18,-1.1180175704850002,8.62534849545,4.148256156850001,30s-1
1.7177051275563507e+18,-1.221593892894737,8.84947111431579,4.056997640473685,30s-1
1.7177051277563507e+18,-1.376387786915,9.79958166555,3.90522903445,30s-1
1.7177051279563507e+18,-0.724538314735,8.20432651495,5.65776212295,30s-1
1.7177051281563507e+18,-2.1747900009350003,3.91564736945,7.781964820799999,30s-1
1.7177051283563507e+18,-0.8076754303,3.43989919275,9.1412955785,30s-1
1.7177051285563507e+18,-2.3217992935550003,4.25404117575,8.1497275542,30s-1
1.7177051287563507e+18,1.52755094144,3.693494339,9.81594264195,30s-1
1.7177051289563507e+18,-1.6812064133,3.57064480585,8.27625942995,30s-1
1.7177051291563507e+18,0.5718857574199999,3.4919609299000003,10.620354859650002,30s-1
1.7177051293563507e+18,-1.1964304311399998,4.0206232813947365,8.502713253473685,30s-1
1.7177051295563507e+18,0.5911581802324999,0.0760269012649999,8.02530628975,30s-1
1.7177051297563507e+18,-0.10679541781,0.2935695190149999,9.56230258955,30s-1
1.7177051299563507e+18,-0.5916222152599999,3.77013496403,9.51524794055,30s-1
1.7177051301563507e+18,-0.663285690345,1.188086860615,8.9142701797,30s-1
1.7177051303563507e+18,-0.2993998947125,0.4342170410025,9.01780986795,30s-1
1.7177051305563507e+18,-0.725586135795,-0.45653562924655,10.9001754675,30s-1
1.7177051307563507e+18,-0.7058047714124999,-0.93423724367,11.0897038425,30s-1
1.7177051309563507e+18,-0.9627080383049998,-1.04855451969,11.428157524,30s-1
1.7177051311563507e+18,-1.3408800465999997,-0.962301515231579,10.706123344210525,30s-1
1.7177051313563507e+18,-1.1394979020199998,0.052735336306,9.88566764845,30s-1
1.7177051315563507e+18,-0.78625497432,1.537714805575,7.8251799546,30s-1
1.7177051317563507e+18,-0.827097541815,2.1082309113000006,6.3897249984,30s-1
1.7177051319563507e+18,-0.644432395982,0.9023161240129998,8.718874007900002,30s-1
1.7177051321563507e+18,-0.5499638443425,-0.2141671371084999,10.7891288915,30s-1
1.7177051323563507e+18,-0.3219280472425,-0.8863817596499999,11.899886559,30s-1
1.7177051325563507e+18,-0.270727020275,-0.830413146995,11.457691108,30s-1
1.7177051327563507e+18,-0.7314763870500001,-0.3606899414095,10.6898478475,30s-1
1.7177051329563507e+18,-0.4367680519926315,0.5193095638947369,9.806312930421052,30s-1
1.7177051331563507e+18,-0.930285461405,2.05037622068,6.7749414367,30s-1
1.7177051333563507e+18,-0.66458798216,2.2816228409499995,6.85288435365,30s-1
1.7177051335563507e+18,-0.5258489913575,0.0415161666635,9.3426119395,30s-1
1.7177051337563507e+18,-0.8803043975940001,-0.3708238677259999,11.112007461,30s-1
1.7177051339563507e+18,-0.6147042159845,-0.70307295227,12.3073093185,30s-1
1.7177051341563507e+18,-0.552403770475,-0.5787265319849999,11.257370179,30s-1
1.7177051343563507e+18,-1.2105251998850002,-0.228821662904,10.136366317650005,30s-1
1.7177051345563507e+18,-0.6802753600949999,1.01801802068,9.351638168399996,30s-1
1.7177051347563507e+18,-0.788320678611,2.256460167,6.4156660538,30s-1
1.7177051349563507e+18,-0.6150551966778948,2.3527679203157894,7.323174012736841,30s-1
1.7177051351563507e+18,-0.7048916702435,0.1923425216659499,9.583895187,30s-1
1.7177051353563507e+18,-0.4633464660595001,-0.081191162082,11.1954514405,30s-1
1.7177051355563507e+18,-0.4205205230485,-0.5772146759050001,12.1518725515,30s-1
1.7177051357563507e+18,-1.1767629088955,-0.6584282913259999,11.013444924,30s-1
1.7177051359563507e+18,-0.9484576721399998,0.2156789932165999,10.06072112275,30s-1
1.7177051361563507e+18,-0.5299878845135,1.099575920095,9.53243220515,30s-1
1.7177051363563507e+18,-0.9068591766165,2.11611950675,7.17006726835,30s-1
1.7177051365563507e+18,-1.2761786727950004,2.48091840375,7.13025006875,30s-1
1.7177051367563507e+18,-0.5923182678378948,1.0101782708052631,8.803855446263158,30s-1
1.7177051369563507e+18,-0.470696182222,0.3202141113114999,10.7574323048,30s-1
1.7177051371563507e+18,-0.5807622985719999,-0.5424419860333,11.4767913905,30s-1
1.7177051373563507e+18,-0.5629942474080002,-0.755673568725,11.3696442035,30s-1
1.7177051375563507e+18,-0.7307578812455,-0.6068754959139999,10.5860162655,30s-1
1.7177051377563507e+18,-0.7640261993099998,0.020559745785,10.1487006683,30s-1
1.7177051379563507e+18,-0.6064339141799999,0.6446195068315,8.884145324799999,30s-1
1.7177051381563507e+18,-0.9701026610475,2.6587486038499994,5.3376078873,30s-1
1.7177051383563507e+18,-0.5434224472335,2.65500638585,8.936177124499999,30s-1
1.7177051385563507e+18,-1.0305359368552631,2.357794309842105,10.223117233578948,30s-1
1.7177051387563507e+18,-0.7775805129945,2.5430691604,10.011301390300002,30s-1
1.7177051389563507e+18,-0.18551671601,1.291117607095,10.5128708718,30s-1
1.7177051391563507e+18,-0.130962661739,-0.39589672845,10.2281554416,30s-1
1.7177051393563507e+18,0.6205495605845001,-0.77279795838,9.938440406899998,30s-1
1.7177051395563507e+18,-0.3900438995205,-1.0815010070900002,9.739040061850002,30s-1
1.7177051397563507e+18,-0.0883762207055,-1.7037719878000002,9.60781544485,30s-1
1.7177051399563507e+18,-0.225663230887,-1.008744804435,9.779972442599998,30s-1
1.7177051401563507e+18,0.094663146975,-0.982766326855,9.7081293411,30s-1
1.7177051403563507e+18,0.0832426854131579,-1.0049943140526316,9.730428627473684,30s-1
1.7177051405563507e+18,0.607309593195,-1.28185935975,9.734916137750002,30s-1
1.7177051407563507e+18,0.330924339305,-0.89434519958,9.70660251615,30s-1
1.7177051409563507e+18,0.2121912460345,-0.7266264724700001,9.747145706149997,30s-1
1.7177051411563507e+18,0.1227372665497,-0.936677169795,9.70100415815,30s-1
1.7177051413563507e+18,0.18178946686,-0.8832382965100001,9.74028996275,30s-1
1.7177051415563507e+18,0.26525589752,-0.83490380859,9.7264886628,30s-1
1.7177051417563507e+18,0.2593506774799999,-0.8759484558049999,9.734586822550002,30s-1
1.7177051419563507e+18,0.1734967117405,-0.8762852554350001,9.72637639615,30s-1
1.7177051421563507e+18,0.1870084822842105,-0.8918926680421052,9.727151232315787,30s-1
1.7177051423563507e+18,0.22780377959,-0.8707991638199999,9.73907748405,30s-1
1.7177051425563507e+18,0.28252997589,-0.9090745697050002,9.73308245085,30s-1
1.7177051427563507e+18,0.2596575393699999,-0.8652756500400001,9.7313759994,30s-1
1.7177051429563507e+18,0.21144280243,-0.92740395358,9.7201194077,30s-1
1.7177051431563507e+18,0.218448234565,-0.9690174179,9.7523548737,30s-1
1.7177051433563507e+18,0.1060320053174999,-0.8987610168450001,9.72166120145,30s-1
1.7177051435563507e+18,0.1279164962744499,-0.9926457825099998,9.74005046075,30s-1
1.7177051437563507e+18,0.279214370715,-0.6489979019300001,9.730096161,30s-1
1.7177051439563507e+18,0.245332328798,-0.96537249766,9.72797058105,30s-1
1.7177051711563507e+18,-0.8850420455399999,1.896548606895,11.519093423,30s-2
1.7177051713563507e+18,-1.106528961203,2.3989114381500003,9.967397691200002,30s-2
1.7177051715563507e+18,-0.61294537351,0.897151863076,7.1019589004500006,30s-2
1.7177051717563507e+18,0.4288187930736842,2.1976273787105263,7.893109877789473,30s-2
1.7177051719563507e+18,-0.1974992980703,2.50265320583,7.589315437249999,30s-2
1.7177051721563507e+18,-0.220304374706,0.6869439925655001,9.01328926885,30s-2
1.7177051723563507e+18,0.128612548822,-0.249875381478395,10.497348151450002,30s-2
1.7177051725563507e+18,-0.841572441079,-0.4843777313135,12.073083893,30s-2
1.7177051727563507e+18,-0.3920646972795,-0.232653694165,11.574201325,30s-2
1.7177051729563507e+18,-0.520123397848,0.1228270797765,10.484055793,30s-2
1.7177051731563507e+18,0.51341734314,0.218066528314825,9.78894628205,30s-2
1.7177051733563507e+18,0.3756213913125,1.63432390604,8.4399515306,30s-2
1.7177051735563507e+18,-0.6171965332214999,2.1194351119,6.7426610642,30s-2
1.7177051737563507e+18,-0.1315054803150526,1.7510586546842106,8.215476355315788,30s-2
1.7177051739563507e+18,0.32534843448425,0.712136604315,10.32690509095,30s-2
1.7177051741563507e+18,0.5995856552150001,0.389430175775,10.675792075949998,30s-2
1.7177051743563507e+18,0.8043747940339999,0.0833167419485,11.720043045,30s-2
1.7177051745563507e+18,0.2363809432995,0.1935400314375,11.11500872,30s-2
1.7177051747563507e+18,-0.1040411453229,0.25762177277815,10.19090540395,30s-2
1.7177051749563507e+18,-0.27313700868505,0.751437377915,9.59372973655,30s-2
1.7177051751563507e+18,-0.7167245636294999,2.1675076446,7.370717514099999,30s-2
1.7177051753563507e+18,-0.52437455749805,1.548701957745,7.950327209549999,30s-2
1.7177051755563507e+18,-0.2472936449479474,0.821215956863158,8.704706364631578,30s-2
1.7177051757563507e+18,0.4334311752229499,0.45190276336445,10.11255084275,30s-2
1.7177051759563507e+18,0.020821701054,0.359904075629,10.3270398104,30s-2
1.7177051761563507e+18,0.019324813853,0.0559012527569999,11.6713418205,30s-2
1.7177051763563507e+18,-0.16682059479575,0.48009663391,11.577075347,30s-2
1.7177051765563507e+18,-0.22141207123125,0.004445755001,10.4312156757,30s-2
1.7177051767563507e+18,0.0088391189569999,0.273653434734,9.311521591200002,30s-2
1.7177051769563507e+18,-0.228776756293,1.90706423945,7.683551971499999,30s-2
1.7177051771563507e+18,-0.4770280151459999,1.347699943605,7.87373897545,30s-2
1.7177051773563507e+18,-0.2635230536095263,0.8052386554421054,8.795362581000001,30s-2
1.7177051821563507e+18,0.2418894882059999,-0.15490537269,10.2756217351,30s-3
1.7177051823563507e+18,0.88676346585,-1.1510763244495004,9.72181089015,30s-3
1.7177051825563507e+18,0.6844890976025001,-0.3631148986904999,9.70109397125,30s-3
1.7177051827563507e+18,-0.344710670467,-0.5767581253,9.74918147285,30s-3
1.7177051829563507e+18,0.5878197278473684,-1.1674065760578949,9.669087765473684,30s-3
1.7177051831563507e+18,0.2542013854962,-1.3343926163149995,9.72701257325,30s-3
1.7177051833563507e+18,0.47732739258,-0.416246910095,9.75174114995,30s-3
1.7177051835563507e+18,0.1761012954785,-0.6759269027999999,9.7399905853,30s-3
1.7177051837563507e+18,0.4450769577080001,-1.2610601120000002,9.72636891165,30s-3
1.7177051839563507e+18,0.1887499923689999,-0.87371809391,9.7379997253,30s-3
1.7177051841563507e+18,0.227489433285,-1.12166997527,9.708526016249998,30s-3
1.7177051843563507e+18,0.211989166255,-1.10301127611,9.72080797575,30s-3
1.7177051845563507e+18,0.29066555786,-1.035090019315,9.7179189834,30s-3
1.7177051847563507e+18,0.2595523633473684,-1.117946271368421,9.718075368684213,30s-3
