Timestamps,Gyro_X,Gyro_Y,Gyro_Z,Label
1.7177051201576077e+18,0.527927983181,-0.925739524579,0.0173640241855,1.0
1.7177051203576077e+18,0.6103881810854999,-1.3277335966295,-0.533923204225,1.0
1.7177051205576077e+18,-2.10936027024,-0.798562117265,3.3398847401,1.0
1.7177051207576077e+18,1.7646800346220002,-0.8322281844355001,5.30161676395,1.0
1.7177051209576077e+18,-1.4683076750805,-1.43107058701,-1.6738131955050002,1.0
1.7177051211576077e+18,-3.483752237225,0.165241330065,-5.185888934199999,1.0
1.7177051213576077e+18,1.15503301882675,1.9969215632,-3.48149020685,1.0
1.7177051215576077e+18,0.2834357958219999,0.179144112116,-0.78641007344825,1.0
1.7177051217576077e+18,0.1946046575445,0.5770504027750001,0.213805406884,1.0
1.7177051219576077e+18,0.1312868551989473,0.2109803126052631,0.2411232276963157,1.0
1.7177051221576077e+18,0.1643611811095,1.5813043593650002,-0.6950497728330001,1.0
1.7177051223576077e+18,0.0213677319646,3.28044334645,-0.3849692560675,1.0
1.7177051225576077e+18,0.11824557319995,0.3833372234415,0.27209374905425,1.0
1.7177051227576077e+18,-0.02534361947837,0.3255946921475,-0.07944463366535,1.0
1.7177051229576077e+18,-0.0458874381159,0.07876701486715,-0.025445060993,1.0
1.7177051231576077e+18,0.0248340226934999,-0.3172951094698,0.0531458112911,1.0
1.7177051233576077e+18,-1.0202443342505,-1.7150475859499998,0.49998352717985,1.0
1.7177051235576077e+18,-1.2461926648835,-3.86533875455,0.63958567987,1.0
1.7177051237576077e+18,0.3201620122110526,-1.392256457036842,-1.5171569742368425,1.0
1.7177051239576077e+18,0.07182057252755,0.2793681121465999,-0.026482572133,1.0
1.7177051241576077e+18,0.1821939852095,2.377774935935,0.430470238635,1.0
1.7177051243576077e+18,-0.3020343062645,3.4759408295499994,-1.2247131360135,1.0
1.7177051245576077e+18,1.80636847025,0.56123418755525,-0.0103962962295,1.0
1.7177051247576077e+18,-0.6250452037809999,1.1774884871449998,1.5282161205549998,1.0
1.7177051249576077e+18,-0.2090679340099999,-0.1270678087349999,0.09524739878385,1.0
1.7177051251576077e+18,0.0365606807216,0.4593445711,0.14791606655908,1.0
1.7177051253576077e+18,-0.8677592314470001,0.0674053769684999,-0.0899926440774999,1.0
1.7177051255576077e+18,-0.1404914858794737,-0.4484567593468421,0.0352419851068421,1.0
1.7177051257576077e+18,-0.482496492565,-0.030235546272,0.3964789482870001,1.0
1.7177051259576077e+18,-0.4172104468278,0.1616898521299999,0.1462526242483299,1.0
1.7177051261576077e+18,-0.0822267886238,0.05096933946295,0.028125446028145,1.0
1.7177051263576077e+18,0.0221756779793999,-0.0358348604807,-0.0355175052220999,1.0
1.7177051265576077e+18,-0.1468786389368999,0.0097324374406,0.1713858701889,1.0
1.7177051267576077e+18,-0.04216084004575,-0.0034542211790499,-0.2546795891614999,1.0
1.7177051269576077e+18,-0.0198161957303499,-0.05599384386925,-0.0740823774825999,1.0
1.7177051271576077e+18,-0.282332032915,0.05119544493095,0.0187384820312999,1.0
1.7177051273576077e+18,-0.2358671404399999,0.0931042641419999,0.0584746416685,1.0
1.7177051275576077e+18,-0.2541636487421053,0.0139203200509473,-0.0624950562673684,1.0
1.7177051277576077e+18,-0.5473858058499999,-0.112604777888,-0.0930999366625,1.0
1.7177051279576077e+18,-1.2554475396849998,-0.0280725893535,-0.2206718934634999,1.0
1.7177051281576077e+18,-0.976664105055,0.0834381645351,0.06472859889675,1.0
1.7177051283576077e+18,-0.28610583021,0.0442031819374999,0.180070296675,1.0
1.7177051285576077e+18,-0.314946804945,-0.7107443302825,0.1962458906110999,1.0
1.7177051287576077e+18,-0.1188342375715,0.04995105384255,0.1060103394937,1.0
1.7177051289576077e+18,0.0025563354829499,0.1323007352615,-0.04812963159665,1.0
1.7177051291576077e+18,-0.09818673913365,-0.094515098086,0.01565623959135,1.0
1.7177051293576077e+18,-0.8330088194631579,-0.1380245759273684,-0.3490563531984736,1.0
1.7177051295576077e+18,-0.51648330613,0.1664590960375,-0.15392011893045,1.0
1.7177051297576077e+18,0.2138740422641999,-0.1068450742774999,-0.021640254303765,1.0
1.7177051299576077e+18,0.2412467852678999,0.049319677778,-0.017289213836,1.0
1.7177051301576077e+18,-0.2374206095865,0.01144378633305,-0.075291308108,1.0
1.7177051303576077e+18,-0.5616695776549999,0.055879831818445,-0.0479427631954999,1.0
1.7177051305576077e+18,-0.3306436538799999,0.0012188523197499,0.0391959662783499,1.0
1.7177051307576077e+18,-0.1816553654605,0.1284301728094999,0.0521624670611,1.0
1.7177051309576077e+18,0.1261156702675,0.0695938688217,0.11006757096085,1.0
1.7177051311576077e+18,0.2750018011526315,0.1132502894611263,0.0640186851742105,1.0
1.7177051313576077e+18,0.410100983075,-0.06817053607095,0.053301782721,1.0
1.7177051315576077e+18,0.3473400227665,-0.04030416295715,0.01370374774425,1.0
1.7177051317576077e+18,-0.173327056141,-0.183761629463,-0.049061060534,1.0
1.7177051319576077e+18,-0.3058031089599999,-0.072995757959,-0.0660287214019099,1.0
1.7177051321576077e+18,-0.359808935225,0.01800436277265,-0.0222225432030499,1.0
1.7177051323576077e+18,-0.1159115846795,-0.04631746329415,-0.0135136164339999,1.0
1.7177051325576077e+18,0.131725831231,0.0405236786737499,0.0162261243946,1.0
1.7177051327576077e+18,0.29931478948,0.03214337317795,0.0122019625267,1.0
1.7177051329576077e+18,0.3866558671,0.0595831263783157,0.0302128836411052,1.0
1.7177051331576077e+18,0.035561563818,0.0405193519985,0.0548411502975,1.0
1.7177051333576077e+18,-0.1436874737977,-0.0645808091379999,-0.046733431053,1.0
1.7177051335576077e+18,-0.29226730615,-0.0277168632421,-0.0680423661129999,1.0
1.7177051337576077e+18,-0.29867969976,0.06242772029125,0.0164731181226999,1.0
1.7177051339576077e+18,0.0032376083544999,-0.0686154145497799,-0.0309892491865,1.0
1.7177051341576077e+18,0.119196877624,0.11623874842345,0.1256444983185,1.0
1.7177051343576077e+18,0.32803687006,0.00042419592125,-0.004107344336855,1.0
1.7177051345576077e+18,0.4110923320099999,-0.0113461471635,-0.01635964075095,1.0
1.7177051347576077e+18,-0.0444678564545,0.0205747590865499,0.0186657356326,1.0
1.7177051349576077e+18,-0.1737831274073684,-0.10726346449,-0.0286200743068947,1.0
1.7177051351576077e+18,-0.243004777285,-0.0924307519549999,-0.06741313452237,1.0
1.7177051353576077e+18,-0.306964245075,0.098142848348,0.0028171992144599,1.0
1.7177051355576077e+18,-0.0216331494532,0.058225792808775,0.0228430732325899,1.0
1.7177051357576077e+18,0.1419669298425,0.0180562082185,-0.0013134951202649,1.0
1.7177051359576077e+18,0.2688869595499999,0.062783970651585,0.039749901195,1.0
1.7177051361576077e+18,0.4490678235849999,-0.0779812261479999,-0.0258272524022,1.0
1.7177051363576077e+18,-0.00620409473675,0.165031498663,0.0735999132754899,1.0
1.7177051365576077e+18,-0.140021620125,-0.05755867213485,0.0065733813442,1.0
1.7177051367576077e+18,-0.2548341923631579,-0.1284391668252631,-0.109066632038421,1.0
1.7177051369576077e+18,-0.3182722583499999,-0.0785402071659999,-0.1002254790825,1.0
1.7177051371576077e+18,-0.21938920542,-0.0658858850595,0.0085271498124999,1.0
1.7177051373576077e+18,-0.02890352602055,-0.0071482049288,0.021633108589,1.0
1.7177051375576077e+18,0.1470286513685,0.1115477435305,0.073486315712815,1.0
1.7177051377576077e+18,0.255952765795,0.0055530448797999,0.00723634031655,1.0
1.7177051379576077e+18,0.341977997875,0.0979077338689,0.0590712457890999,1.0
1.7177051381576077e+18,0.29334051138862,0.1376054323325999,0.09808127666355,1.0
1.7177051383576077e+18,0.50055304542,-0.1196364702202,0.00426961159707,1.0
1.7177051385576077e+18,-0.0618405931031052,-0.0738171229220526,-0.0938067057374737,1.0
1.7177051387576077e+18,-0.4377731516850001,-0.3218797031865,0.02419043723755,1.0
1.7177051389576077e+18,-0.6194124489999999,-0.043438426401,0.0242569046069999,1.0
1.7177051391576077e+18,-0.6621077507700001,-0.0738268757249999,0.0861723799274999,1.0
1.7177051393576077e+18,-0.2194399524525,0.0159375023399,0.03390291587015,1.0
1.7177051395576077e+18,0.0094815248157,0.008953264075945,0.1391411904215,1.0
1.7177051397576077e+18,-0.0518115072505,0.0230054471418999,0.0990820432975,1.0
1.7177051399576077e+18,0.01841924309255,-0.0438115135755,-0.033102227260815,1.0
1.7177051401576077e+18,0.049078163038,-0.059864802473,-0.1490501407449999,1.0
1.7177051403576077e+18,0.00548884157652,-0.0836462151,-0.1883700960473684,1.0
1.7177051405576077e+18,0.0345723698845,0.0203268789673999,-0.1473333962275,1.0
1.7177051407576077e+18,0.0501843495393499,-0.0008116790324999,0.0539708742721999,1.0
1.7177051409576077e+18,0.00063644505585,0.0368925035005,0.0682345580805,1.0
1.7177051411576077e+18,0.0040392263734999,0.0117536857722999,0.0150931433769924,1.0
1.7177051413576077e+18,-0.003499587838255,-0.0223433265935,-0.0201609302541,1.0
1.7177051415576077e+18,-0.000429622110885,-0.0089405436075499,0.002706499164924,1.0
1.7177051417576077e+18,-0.000412470183625,0.008423087252015,0.02346244053895,1.0
1.7177051419576077e+18,-0.0013395568926999,0.0104394874013999,0.0059263797932999,1.0
1.7177051421576077e+18,-0.0011847265260526,-0.0089288796424736,0.0024104939874,1.0
1.7177051423576077e+18,0.005691468919345,-0.0111382078729,0.0083224256523,1.0
1.7177051425576077e+18,-0.005568202133561,-0.00267716254733,0.02000888392875,1.0
1.7177051427576077e+18,4.551444139500006e-05,0.007358043992225,0.0084797486426449,1.0
1.7177051429576077e+18,-0.010026162351,0.0087654648586,0.0007134697634,1.0
1.7177051431576077e+18,0.0035490576119,0.01486340761205,-0.006475365884035,1.0
1.7177051433576077e+18,-0.00425229784393,0.0114984380026099,-0.0133458493048,1.0
1.7177051435576077e+18,0.0043205598144,-0.0010888334975749,-0.013714174228,1.0
1.7177051437576077e+18,0.0132010704896949,-0.005254976754165,0.0091751591773499,1.0
1.7177051439576077e+18,0.01240740953935,0.0148805241449499,-0.0009375753817025,1.0
1.7177051711576077e+18,0.9014377601,0.343186756505,0.11305584656455,2.0
1.7177051713576077e+18,-0.3638545031826,0.10527905826175,-0.0340734530315,2.0
1.7177051715576077e+18,-0.1485542655975,-0.3788894958899999,-0.0410818117118,2.0
1.7177051717576077e+18,0.0467826008163157,-0.1330442333192631,0.0017298182599999,2.0
1.7177051719576077e+18,-0.04581042865725,0.09543511094995,7.168371749999777e-05,2.0
1.7177051721576077e+18,-0.38357631638,-0.0710505408265,-0.0306175835667,2.0
1.7177051723576077e+18,-0.2726047009349999,0.139756212608,0.02512220498125,2.0
1.7177051725576077e+18,-0.00394473562704,0.162117817165,0.090788649773,2.0
1.7177051727576077e+18,0.091943387694,-0.0930812920318,0.0367664923845,2.0
1.7177051729576077e+18,0.1316292114659999,-0.1699377506965,-0.0502453095215,2.0
1.7177051731576077e+18,0.19494386837,-0.09874772720265,-0.028124634735947,2.0
1.7177051733576077e+18,0.33531734859705,0.1225671423875,-0.0151167242287499,2.0
1.7177051735576077e+18,-0.0363144299425,-0.03593022656,-0.0449894469955,2.0
1.7177051737576077e+18,-0.1315654833852631,-0.1983815596315789,-0.0708766452451158,2.0
1.7177051739576077e+18,-0.141119482005,-0.1293368353439999,-0.01606297260418,2.0
1.7177051741576077e+18,-0.28010167628,0.0954496294240999,0.04440768619635,2.0
1.7177051743576077e+18,0.0120547986596999,0.0707181136025,0.01091806718525,2.0
1.7177051745576077e+18,0.06924243959785,0.079636179654,0.06408378547155,2.0
1.7177051747576077e+18,0.1628679677849999,0.1356327600745,0.02925115791205,2.0
1.7177051749576077e+18,0.18063650019,0.168933116275,0.06913024634005,2.0
1.7177051751576077e+18,-0.1709036877384499,-0.00832723919435,0.0293978543018499,2.0
1.7177051753576077e+18,0.055051149390575,-0.05959690464215,-0.03829370490225,2.0
1.7177051755576077e+18,-0.0811988551506105,-0.2292920194210526,-0.0881401793299473,2.0
1.7177051757576077e+18,-0.097097086587,-0.0228300325612499,-0.033420741552,2.0
1.7177051759576077e+18,-0.1424997566365,0.00951046947105,0.04633857124165,2.0
1.7177051761576077e+18,0.07924587346425,0.1295770568795,0.05320477229285,2.0
1.7177051763576077e+18,-0.026981993529,-0.0231138166687,0.021515353583045,2.0
1.7177051765576077e+18,-0.0381812528502,-0.00392716024015,-0.0165680397301499,2.0
1.7177051767576077e+18,0.27804053463,0.0531187894296499,0.01658173296505,2.0
1.7177051769576077e+18,0.0034866639419999,0.0373944138998,0.02897443245145,2.0
1.7177051771576077e+18,-0.0488211127228,-0.035069638933,-0.0086560185775,2.0
1.7177051773576077e+18,-0.2235945855421052,-0.1886722288631578,-0.0854093058691052,2.0
1.7177051821576077e+18,-0.54278558194,-0.088389734353,0.0749974230971,3.0
1.7177051823576077e+18,-0.0344957691811,-0.03052546635711,0.1011353327029999,3.0
1.7177051825576077e+18,-0.0179084841922,0.139510470615,0.067800023596,3.0
1.7177051827576077e+18,-0.03992224580105,-0.0048873221489499,0.078566753822,3.0
1.7177051829576077e+18,-0.0004110310572105,-0.0525374797996315,-0.074801066901421,3.0
1.7177051831576077e+18,0.0544992996375,0.0133453043403499,-0.111080591003,3.0
1.7177051833576077e+18,-0.00942902001495,-0.002648475113265,-0.02786498932425,3.0
1.7177051835576077e+18,-0.0351109414364999,0.0155715267410999,0.027872191928,3.0
1.7177051837576077e+18,-0.0565212801104999,0.01821939601785,0.0545480541875,3.0
1.7177051839576077e+18,-0.013204128846265,0.01151481256855,0.01894636033215,3.0
1.7177051841576077e+18,-0.0235608420799999,0.00678632574834,-0.0233126680357,3.0
1.7177051843576077e+18,-0.00556613801755,-0.01263994263745,-0.00686744968337,3.0
1.7177051845576077e+18,0.0047862970927099,-0.0041053947061684,-0.001891911228435,3.0
1.7177051847576077e+18,0.0052543235272789,0.0061952785685783,-0.0091621272109315,3.0
