Timestamps,Acc_X,Acc_Y,Acc_Z
1.717749846121958e+18,-0.04114301409219047,-0.5587808663752047,9.657431553714284
1.717749846321958e+18,-0.3813320159930001,-0.46577890778770004,9.7510675512
1.717749846521958e+18,-0.4493356018,-0.21896466064750003,9.808181282200001
1.717749846721958e+18,-0.2539843368515,0.2956801299975,9.90273964675
1.717749846921958e+18,0.23671774291749997,1.125472068705,9.63540307615
1.717749847121958e+18,-0.22584285736770005,1.8183736724500001,9.443838936
1.717749847321958e+18,0.036314483646,1.9357445984,9.25680287925
1.717749847521958e+18,-0.10853857858190474,2.6553282165714287,8.885294363904762
1.717749847721958e+18,-0.14588662720094997,3.3404160690499998,7.850088157650001
1.717749847921958e+18,0.25271946715500004,1.14696736908,9.881932914650001
1.717749848121958e+18,0.9645566939765,0.15240557098180002,10.963538704449999
1.717749848321958e+18,1.296588729735,0.25402924346,11.613419769
1.717749848521958e+18,0.9368418273950002,0.685813842745,10.45163321735
1.717749848721958e+18,0.5092335433899999,2.34873577875,9.251458991949999
1.717749848921958e+18,1.1836314828333332,3.994300951285714,7.81390803747619
1.717749849121958e+18,1.9418968049000003,5.163976455649999,6.463993057250001
1.717749849321958e+18,1.161569503805,3.8266349716500003,7.98596809385
1.717749849521958e+18,0.37526962281285,2.75023834985,9.7331198726
1.717749849721958e+18,0.9344991989399999,2.48411425775,9.878160759350001
1.717749849921958e+18,0.9491537246399998,2.95286448675,10.6489454044
1.717749850121958e+18,0.8389154663200001,3.49887654885,10.622570250999999
1.717749850321958e+18,0.49484845733450006,4.1127649613,9.41883343505
1.717749850521958e+18,0.1872677176338095,4.7733024379047615,7.648010166714285
1.717749850721958e+18,0.14519057464215,5.84491793055,6.407522987349999
1.717749850921958e+18,-0.2651062088145,5.722315383900001,6.1421248855
1.717749851121958e+18,0.7142546997102,4.90235050975,7.5798625946
1.717749851321958e+18,0.4893848190349999,3.7912410736999993,9.2232202149
1.717749851521958e+18,1.017501594605,3.3392559814499996,10.0273405375
1.717749851721958e+18,0.991261161785,3.29182711035,10.8148079915
1.717749851921958e+18,0.1661117117852381,4.122199271095238,9.962297580904762
1.717749852121958e+18,0.3264935531645,5.092507575899999,9.052994201599999
1.717749852321958e+18,0.39506595611649997,5.34021247095,7.6665173949000005
1.717749852521958e+18,-0.08277037812199999,6.27809463505,5.573075729249999
1.717749852721958e+18,-0.1922152862724,6.551014595049999,5.7392002716
1.717749852921958e+18,-0.007214996342099994,5.5084551088,6.39342979435
1.717749853121958e+18,-0.14875316620700002,4.467212882950001,9.16874848985
1.717749853321958e+18,0.3183879089495238,3.7610502842857145,10.00996274609524
1.717749853521958e+18,-0.03129991147050001,3.54017566675,10.3672461996
1.717749853721958e+18,-0.9181157684400001,4.2851315231,10.473510223049999
1.717749853921958e+18,-0.32161370085100005,5.0107326278499995,8.777701675750002
1.717749854121958e+18,0.28744725037950003,5.019556777950001,8.271214920199998
1.717749854321958e+18,0.15966547393799999,5.83485136405,6.42731183625
1.717749854521958e+18,0.310065216075,6.572292846649999,5.539777473399999
1.717749854721958e+18,0.3702799987566666,6.095994742285716,6.5280890546190475
1.717749854921958e+18,0.232900680548,5.948367805599999,7.515167129549999
1.717749855121958e+18,0.34092354583775003,5.243857841500001,8.024093810999998
1.717749855321958e+18,1.5118860168050001,4.73231909185,9.138189536750001
1.717749855521958e+18,1.238000564575,3.8533993148500003,9.701318503900001
1.717749855721958e+18,0.1073866882265,3.2930021667999996,9.997118385449998
1.717749855921958e+18,-0.6851028213450001,4.2761277466,10.528243904049999
1.717749856121958e+18,0.3448977813815,5.2838621521,8.74818305965
1.717749856321958e+18,0.44023452759752385,5.68812861852381,7.348490164666668
1.717749856521958e+18,0.08702153777874999,6.33325492855,5.13686782845
1.717749856721958e+18,-0.17266593932650004,6.884191749550001,6.2155247497
1.717749856921958e+18,-0.03369493102030001,6.234744781449999,5.6479949341
1.717749857121958e+18,0.5115312652358,5.5881269303500005,6.841582855099999
1.717749857321958e+18,1.315007926805,4.45889767455,8.91285562085
1.717749857521958e+18,1.7963619461599998,2.46701980585,11.796945625300001
1.717749857721958e+18,-0.8738257271714286,0.9348203168666667,9.757722996142856
1.717749857921958e+18,-0.56259757233,1.1141855392599997,9.743328643649999
1.717749858121958e+18,-0.027699897773499994,1.515530937235,9.533195617799999
1.717749858321958e+18,-0.14406042480429998,1.2761412505850003,9.781312156750001
1.717749858521958e+18,-0.0586255874584,1.091036178605,9.789964164549996
1.717749858721958e+18,0.16364719391049998,0.8231756973149998,9.7774277344
1.717749858921958e+18,-0.185015258779,1.3445639647500003,9.730941902149999
1.717749859121958e+18,-0.27308925084428576,1.0883011517523808,9.70864647995238
1.717749859321958e+18,0.04181554413420001,1.387195312395,9.6344974594
1.717749859521958e+18,-0.16771124267550003,1.4403722304,9.664248092600001
1.717749859721958e+18,-0.2531385955766,1.5795677719500003,9.615651649449998
1.717749859921958e+18,-0.45163332367000003,1.50422943875,9.588760070899998
1.717749860121958e+18,-0.47084587097,1.7415683899,9.689695175200002
1.717749860321958e+18,-0.35894606781,1.7748067703000001,9.622597206150001
1.717749860521958e+18,-0.43989024353,1.7755477295000002,9.6316234359
1.717749860721958e+18,-0.49684537616190483,1.7477227347619047,9.630109797904762
1.717749860921958e+18,-0.428521385195,1.7071848908,9.61339883425
1.717749861121958e+18,-0.47687832641000005,1.6737668838000002,9.65071623235
1.717749861321958e+18,-0.45441004943499996,1.6747473449499999,9.6311070099
1.717749861521958e+18,-0.46236600494999996,1.6714990997999997,9.63567251585
1.717749861721958e+18,-0.468944824215,1.66414938355,9.65629962155
1.717749861921958e+18,-0.464611335755,1.6877927169000002,9.64061224365
1.717749862121958e+18,-0.46247399466190475,1.7208785574285717,9.629004952619047
1.717749862321958e+18,-0.4681365051250001,1.7821939088,9.6474904403
1.717749862521958e+18,-0.44088567352499997,1.8778674543999994,9.569622367800001
1.717749862721958e+18,-0.402520454405,1.9462302933,9.554189460699998
1.717749862921958e+18,-0.43993515015,1.9676881714499999,9.553411079350001
1.717749863121958e+18,-0.4226984939599999,1.9384614487,9.60575722505
1.717749863321958e+18,-0.42427022551500004,1.94266770185,9.584987915
1.717749863521958e+18,-0.4282166617285714,1.944727347285714,9.570847320619047
1.717749863721958e+18,-0.40159986877,1.9152596969000002,9.56006474295
1.717749863921958e+18,-0.451244133,1.86715722645,9.609955993749999
1.717749864121958e+18,-0.436140541075,1.8340685347500003,9.620868301349999
1.717749864321958e+18,-0.445114379885,1.8127827987999996,9.619977653400001
1.717749864521958e+18,-0.464237113955,1.8046097946999997,9.6431794052
1.717749864721958e+18,-0.452007545475,1.8363887099,9.61382544695
1.717749864921958e+18,-0.47297893523,1.8776728591500003,9.5920083161
1.717749865121958e+18,-0.46022866386190475,1.895408477761905,9.590449414857144
1.717749865321958e+18,-0.452434158325,1.9311566390500001,9.58504779055
1.717749865521958e+18,-0.441402099605,1.9502494354499995,9.53506672665
1.717749865721958e+18,-0.431200813305,1.9192414168999998,9.5502451629
1.717749865921958e+18,-0.4421729965199999,1.8655480727499998,9.6707670365
1.717749866121958e+18,-0.41310344697,1.8459538192,9.575340477
1.717749866321958e+18,-0.40543190001999996,1.8471513291000001,9.600188804599998
1.717749866521958e+18,-0.4006881932,1.7987665884761903,9.61839130947619
1.717749866721958e+18,-0.391211471565,1.7896259538,9.62202838905
1.717749866921958e+18,-0.40850051880500005,1.77780802915,9.6064757309
1.717749867121958e+18,-0.36976107789,1.75278007515,9.62050156405
1.717749867321958e+18,-0.44003993225000004,1.74126152805,9.659345787000001
1.717749867521958e+18,-0.4142859878699999,1.7674495696500003,9.613428772000002
1.717749867721958e+18,-0.43530228424000006,1.79039685055,9.6248724747
1.717749867921958e+18,-0.43138150896666666,1.7956587655238092,9.625063149714284
1.717749868121958e+18,-0.42717418671499996,1.83555793745,9.610098197949998
1.717749868321958e+18,-0.42287812041500006,1.88163212585,9.5437636414
1.717749868521958e+18,-0.4075050888050001,1.86780088805,9.5901147538
1.717749868721958e+18,-0.441267379765,1.8459837569999997,9.6033771743
1.717749868921958e+18,-0.42432261658000003,1.8258281708,9.610779281700001
1.717749869121958e+18,-0.43455384065,1.80909297165,9.60753852085
1.717749869321958e+18,-0.43165736388500003,1.7730030212999999,9.63083008575
1.717749869521958e+18,-0.4175174822095237,1.7554138837619049,9.621998094857142
1.717749869721958e+18,-0.43370061492500006,1.7381554870499998,9.6571303939
1.717749869921958e+18,-0.466504898075,1.7932109985500002,9.6735362777
1.717749870121958e+18,-0.47011239624999995,1.81657740775,9.554765762399999
1.717749870321958e+18,-0.37767961119000004,1.8740503920999998,9.587644889700002
1.717749870521958e+18,-0.41463775634500005,1.84742825315,9.57168058785
1.717749870721958e+18,-0.4441039810149999,1.8790724486500001,9.588393333500001
1.717749870921958e+18,-0.4118221827904761,1.8727555848095243,9.78892953052381
1.717749871121958e+18,-0.38185592651499994,1.9282751312499997,9.331475097650001
1.717749871321958e+18,-0.46214895629999997,1.77276351925,9.673843139650002
1.717749871521958e+18,-0.40133791351000003,1.74828192905,9.629722389300001
1.717749871721958e+18,-0.41942031098,1.73833511355,9.636712852550001
1.717749871921958e+18,-0.42076750945499997,1.7525779953,9.6588518143
1.717749872121958e+18,-0.42867107391000003,1.80250666815,9.60560005185
1.717749872321958e+18,-0.4396429007428571,1.843794381190476,9.606373443619047
1.717749872521958e+18,-0.43074426269999994,1.8814375306,9.5972324525
1.717749872721958e+18,-0.435002906795,1.9152372436499998,9.580317626900001
1.717749872921958e+18,-0.43501039123000007,1.9099307786000002,9.57122403715
1.717749873121958e+18,-0.43018292998999996,1.9109336929,9.57302778625
1.717749873321958e+18,-0.45398343659,1.8997519454999998,9.587869422950002
1.717749873521958e+18,-0.43531725311000014,1.8749934311499998,9.59156673425
1.717749873721958e+18,-0.4559817809999999,1.8574798507500003,9.60946202085
1.717749873921958e+18,-0.44406228200476194,1.8405012293809524,9.60613821852381
1.717749874121958e+18,-0.46099635315,1.8230738982999999,9.60678259275
1.717749874321958e+18,-0.45185037231,1.8529293135,9.60956680305
1.717749874521958e+18,-0.439224128725,1.85396965025,9.6080549469
1.717749874721958e+18,-0.45406576538000004,1.86096011355,9.613017127800001
1.717749874921958e+18,-0.43917922210500004,1.893375206,9.593654892049999
1.717749875121958e+18,-0.47755941009,1.8777252501999997,9.607905258199999
1.717749875321958e+18,-0.46837600708095245,1.9267219325714284,9.59275177004762
1.717749875521958e+18,-0.4682188339200001,1.9497479782,9.57935961915
1.717749875721958e+18,-0.43027274323000003,1.9554361496499997,9.56000486755
1.717749875921958e+18,-0.45175307464000003,1.9522702331999997,9.56096287535
1.717749876121958e+18,-0.42705443572,1.9324589310500002,9.5774061814
1.717749876321958e+18,-0.44036176300499996,1.9099906539000002,9.5842394715
1.717749876521958e+18,-0.455330635075,1.883937332,9.607022094600001
1.717749876721958e+18,-0.4438270568904762,1.8618853324285713,9.59474049157143
1.717749876921958e+18,-0.448871566765,1.8451679536,9.604170524550002
1.717749877121958e+18,-0.43616299438999995,1.8260377349999999,9.606543090799999
1.717749877321958e+18,-0.452479064935,1.8037191467000002,9.615861213600002
1.717749877521958e+18,-0.443505226145,1.7964517593500002,9.622836708049999
1.717749877721958e+18,-0.451528541565,1.7901348953499998,9.613922744849999
1.717749877921958e+18,-0.44206821441500005,1.7821564865000004,9.61663211055
1.717749878121958e+18,-0.44806324768999994,1.7784965974000002,9.632214706400001
1.717749878321958e+18,-0.4557094900857143,1.8009762790476194,9.620814841142856
1.717749878521958e+18,-0.46089905547,1.8368826828500002,9.606647872950001
1.717749878721958e+18,-0.45934977721500003,1.8553018799500003,9.59926821895
1.717749878921958e+18,-0.461879516605,1.8763630828,9.59831769555
1.717749879121958e+18,-0.45120671082,1.9107166442500003,9.576665222199999
1.717749879321958e+18,-0.45436514281999996,1.9190617903500005,9.567122566250001
1.717749879521958e+18,-0.45443998719500006,1.89422094725,9.590840744099998
1.717749879721958e+18,-0.4616827828619047,1.888608333095238,9.595510319333332
1.717749879921958e+18,-0.45699966430500005,1.8771339798,9.59680583965
1.717749880121958e+18,-0.45134143067500004,1.8594931640999999,9.593340545650001
1.717749880321958e+18,-0.45234434509000004,1.8359022216999996,9.609903602649998
1.717749880521958e+18,-0.45222459411500004,1.8287471008000005,9.607059516749999
1.717749880721958e+18,-0.45234434509499993,1.8179994507,9.60728405
1.717749880921958e+18,-0.45442501832,1.80752872465,9.60718675225
1.717749881121958e+18,-0.45357107979523803,1.7872263009047622,9.61847684595238
1.717749881321958e+18,-0.44813809204500005,1.78803925325,9.620104888900002
1.717749881521958e+18,-0.46081672668499996,1.7929191054499998,9.62645917525
1.717749881721958e+18,-0.45862378693499994,1.8185757523,9.608077400149998
1.717749881921958e+18,-0.47287415315,1.8286498030499998,9.613900291350001
1.717749882121958e+18,-0.43939627075,1.85640957625,9.600727683949998
1.717749882321958e+18,-0.46468618011000007,1.8798059235,9.59917840575
1.717749882521958e+18,-0.43656715393,1.9014583968500003,9.5808041153
1.717749882721958e+18,-0.4520599365238095,1.8971976143809526,9.581247122619049
1.717749882921958e+18,-0.439987541205,1.9104172669000001,9.56824523165
1.717749883121958e+18,-0.45836931610000003,1.89917564395,9.58560912335
1.717749883321958e+18,-0.44165657043,1.8813477172,9.590212051399998
1.717749883521958e+18,-0.45817472075999993,1.8557659147999996,9.60857885745
1.717749883721958e+18,-0.44670856476000004,1.840969185,9.6084665909
1.717749883921958e+18,-0.4494029617299999,1.8325716477,9.60322000135
1.717749884121958e+18,-0.44183833530952377,1.8111693681904761,9.613052411761904
1.717749884321958e+18,-0.44910358428999997,1.7973274383500002,9.61891486355
1.717749884521958e+18,-0.44450814057,1.7919536132999998,9.615906120350001
1.717749884721958e+18,-0.44512186432,1.7829648055499998,9.617874527049997
1.717749884921958e+18,-0.44860961150999995,1.7712591477,9.61782962035
1.717749885121958e+18,-0.4534969482449999,1.7686620483000002,9.629722389249997
1.717749885321958e+18,-0.459297386165,1.7838554535500002,9.61897473905
1.717749885521958e+18,-0.45738457816190475,1.8085248674285712,9.605375518714286
1.717749885721958e+18,-0.46208159638,1.8212252426,9.617904464750001
1.717749885921958e+18,-0.46503046416,1.8453251266,9.605884460350001
1.717749886121958e+18,-0.46738057709499997,1.8718424835499998,9.595907707299999
1.717749886321958e+18,-0.45156596373999996,1.8891914061999997,9.555985725349998
1.717749886521958e+18,-0.4705015869199999,1.8634075241499999,9.60429776005
1.717749886721958e+18,-0.45937223053,1.8633551331,9.594912277199999
1.717749886921958e+18,-0.458504035945,1.84892514035,9.61120589455
1.717749887121958e+18,-0.4787900652142857,1.8404228210952378,9.590984017476192
1.717749887321958e+18,-0.399429382315,1.7749190368500003,9.613002159200002
1.717749887521958e+18,-0.41948767090000005,1.7251699905,9.646038459749999
1.717749887721958e+18,-0.35060092163,1.6534690933499998,9.600937248250002
1.717749887921958e+18,-0.397820228565,1.554906555,9.698788765
1.717749888121958e+18,-0.30000613404500004,1.5006818161,9.68470305635
1.717749888321958e+18,-0.37209622193,1.5389647063,9.671620262
1.717749888521958e+18,-0.3375195530619048,1.5742691475714288,9.63990371704762
1.717749888721958e+18,-0.38971458436499995,1.59467136385,9.65128504925
1.717749888921958e+18,-0.341993820185,1.6260835418499997,9.636967323300002
1.717749889121958e+18,-0.4369862823499999,1.6105907591999997,9.6402380218
1.717749889321958e+18,-0.19928807830500003,1.6021034087999997,9.61947619625
1.717749889521958e+18,-0.5614225158650001,1.72786438765,9.619169334399999
1.717749889721958e+18,-0.36604131318999994,1.71793254095,9.651509582549998
1.717749889921958e+18,-0.46279475620952387,1.725141122,9.633581150666666
1.717749890121958e+18,-0.41727227782499987,1.7328415375,9.6434712982
1.717749890321958e+18,-0.45672274017500003,1.75733809655,9.633614295900001
1.717749890521958e+18,-0.42524320220500006,1.7905016327999999,9.615958511500002
1.717749890721958e+18,-0.458519004815,1.8278564529499999,9.6191618499
1.717749890921958e+18,-0.48154113005999993,1.88773194125,9.5838278275
1.717749891121958e+18,-0.41626936339,1.9686985701999997,9.557557457000001
1.717749891321958e+18,-0.44078089140500004,1.9664307860999997,9.541900016749999
1.717749891521958e+18,-0.4544050598095238,1.9341992405714283,9.585260205952382
1.717749891721958e+18,-0.4765639801,1.8662067032499998,9.6046270751
1.717749891921958e+18,-0.46369075013500005,1.8274448090500002,9.61039757535
1.717749892121958e+18,-0.461669952395,1.78862303925,9.611991760250001
1.717749892321958e+18,-0.4550312576450001,1.7744100950999997,9.612889892500002
1.717749892521958e+18,-0.45980632783,1.7317562943000002,9.63647335055
1.717749892721958e+18,-0.44902125548000005,1.72776708985,9.625950233500001
1.717749892921958e+18,-0.45631537300952385,1.7278355189999997,9.625818721238094
1.717749893121958e+18,-0.45804748535,1.72171218105,9.638179802
1.717749893321958e+18,-0.45790528106499995,1.7354386367499999,9.632588928199999
1.717749893521958e+18,-0.46494065094000003,1.7584981841999998,9.62443837745
1.717749893721958e+18,-0.46858557128999995,1.7938396912499996,9.609057861399998
1.717749893921958e+18,-0.46008325196,1.80516364285,9.60932730095
1.717749894121958e+18,-0.46884752654999995,1.8365084609999998,9.603160125799999
1.717749894321958e+18,-0.45736319406666665,1.8544721767142858,9.566656036380953
1.717749894521958e+18,-0.45674519348500003,1.8520686035499998,9.589703109799999
1.717749894721958e+18,-0.46622048949999995,1.8165848923000003,9.61052481085
1.717749894921958e+18,-0.45416306304500004,1.8057174912499996,9.610113166900002
1.717749895121958e+18,-0.46531487273499994,1.7919536132499996,9.609955993549999
1.717749895321958e+18,-0.45024121857,1.7762512665000003,9.61458137505
1.717749895521958e+18,-0.45506119537500006,1.7511334992000003,9.62898891455
1.717749895721958e+18,-0.450473236075,1.7451908568999996,9.629153572
1.717749895921958e+18,-0.4586319841714286,1.7370449393809522,9.621577540809524
1.717749896121958e+18,-0.445488601685,1.7308132552,9.623008850149999
1.717749896321958e+18,-0.456602989185,1.7271907882000002,9.633576873800001
1.717749896521958e+18,-0.4645364913950001,1.7481322403,9.627005538949998
1.717749896721958e+18,-0.47003755187500007,1.7759144669500002,9.61851070405
1.717749896921958e+18,-0.47214816284000005,1.7980534287000005,9.612216293550002
1.717749897121958e+18,-0.4648433532749999,1.8044526215,9.61412482455
1.717749897321958e+18,-0.4710704040571428,1.8390328542380954,9.603557870000001
1.717749897521958e+18,-0.4694537658750001,1.8799181900000002,9.56550592805
1.717749897721958e+18,-0.47434110260000006,1.86754641715,9.5891492615
1.717749897921958e+18,-0.48133905030000007,1.8397941284500003,9.604627075249999
1.717749898121958e+18,-0.47065127563,1.8310523070999998,9.610023353649998
1.717749898321958e+18,-0.47553112791999996,1.8200651550499998,9.60107196795
1.717749898521958e+18,-0.46792694090999987,1.8017806778,9.60423788445
1.717749898721958e+18,-0.46238133020952366,1.7776462229047618,9.622297472333333
1.717749898921958e+18,-0.46577890777000003,1.7654138032000002,9.6212574921
1.717749899121958e+18,-0.45640090941499994,1.7542021179000002,9.6191843031
1.717749899321958e+18,-0.44899880218499993,1.7387093354499998,9.620030044599998
1.717749899521958e+18,-0.45412564086000007,1.7213978348,9.639751533500002
1.717749899721958e+18,-0.4532873840300001,1.7409396972,9.629378105149998
1.717749899921958e+18,-0.466422569275,1.7682803421500002,9.616991363500002
1.717749900121958e+18,-0.46571903229,1.7862504730500004,9.610659530600001
1.717749900321958e+18,-0.4612194606333333,1.8019670758571429,9.614249921523811
1.717749900521958e+18,-0.46324916838999997,1.82261734775,9.60874351505
1.717749900721958e+18,-0.47224546051000005,1.85271226505,9.58072178655
1.717749900921958e+18,-0.4550013198849999,1.84492845165,9.59297380835
1.717749901121958e+18,-0.47100304413500005,1.8302140503000004,9.6085788573
1.717749901321958e+18,-0.46187203216000006,1.8162929993999999,9.609304847699999
1.717749901521958e+18,-0.46031526947,1.8075661468499997,9.610839157200001
1.717749901721958e+18,-0.4543052673428571,1.7824505179047616,9.614670475666665
1.717749901921958e+18,-0.45874353790000005,1.7828899612,9.64349375155
1.717749902121958e+18,-0.4253255309949999,1.5622038802999998,9.6347070237
1.717749902321958e+18,-0.31006521608,1.3918281785000002,9.698167556749999
1.717749902521958e+18,-0.435234924315,1.3778996429,9.677488059900002
1.717749902721958e+18,-0.5769901428199999,1.45555066685,9.66908303835
1.717749902921958e+18,-0.498455955515,1.5188390579,9.67976332855
1.717749903121958e+18,-0.5663365827095238,1.5759228515714283,9.618305773047618
1.717749903321958e+18,-0.4414544906550001,1.73233259585,9.6364883194
1.717749903521958e+18,-0.545061538685,1.8248626785500002,9.6158911515
1.717749903721958e+18,-0.46551695251499997,1.90033573155,9.573963340799999
1.717749903921958e+18,-0.5242548065149999,1.9472781143000002,9.573813652199998
1.717749904121958e+18,-0.45094475554,1.9858753509999996,9.5799957962
1.717749904321958e+18,-0.53309392547,2.0053573379500005,9.589875251699999
1.717749904521958e+18,-0.4429788207952382,2.0245470756190476,9.512511487714285
1.717749904721958e+18,-0.48508875274499996,2.0113224334,9.562601966799999
1.717749904921958e+18,-0.4788766708450001,1.9930903473000001,9.57316250615
1.717749905121958e+18,-0.479445487965,1.9803892593500003,9.574045669650001
1.717749905321958e+18,-0.5208269348049999,1.9673813094500001,9.57435253135
1.717749905521958e+18,-0.48871121979,1.9409986726,9.57378371435
1.717749905721958e+18,-0.502287986765,1.91473578635,9.59787611385
1.717749905921958e+18,-0.49903974152,1.9037411498499999,9.5897180786
1.717749906121958e+18,-0.5123345947190476,1.896035744857143,9.594861668095238
1.717749906321958e+18,-0.4828134842,1.87245620735,9.6025688553
1.717749906521958e+18,-0.49232620240499997,1.8623971251999998,9.599133499199999
1.717749906721958e+18,-0.483509536745,1.8430124358999997,9.601558456449999
1.717749906921958e+18,-0.49026049804500005,1.8455122376000002,9.604327697850001
1.717749907121958e+18,-0.48126420593499997,1.8392627333,9.605996727
1.717749907321958e+18,-0.47849496461499996,1.83507144925,9.61740300745
1.717749907521958e+18,-0.5223637390142857,1.7603536114761902,9.60693655847619
1.717749907721958e+18,-0.30047016907,1.48252457435,9.672016937200002
1.717749907921958e+18,-0.4211716690049999,1.4825021211,9.66617159275
1.717749908121958e+18,-0.04671036528785,1.3416749727,9.702141792299999
1.717749908321958e+18,-0.271894592281,1.4962734833,9.639586875900001
1.717749908521958e+18,-0.4085828476000001,1.3799503784999998,9.6729599762
1.717749908721958e+18,-0.322945930485,1.3041031037,9.71324121085
1.717749908921958e+18,-0.5181653267952381,1.2798955862380954,9.70240944995238
1.717749909121958e+18,-0.6937548294,1.2652064895500001,9.68459078975
1.717749909321958e+18,-0.600154472345,1.289605751,9.6878390349
1.717749909521958e+18,-0.276662178042,1.2713736648,9.689695175199999
1.717749909721958e+18,-0.7606357498149999,1.2685969390499998,9.691528862049998
1.717749909921958e+18,-0.40735540008,1.3108241272999996,9.7053526153
1.717749910121958e+18,-0.43746528625,1.34890493775,9.66394871515
1.717749910321958e+18,-0.3025882644649999,1.3902639313,9.66570007325
1.717749910521958e+18,-0.5185930088619047,1.3350309316666666,9.690783626000002
1.717749910721958e+18,-0.37065921021000003,1.1619586944,9.7479166032
1.717749910921958e+18,-0.36547249602750004,1.295855255,9.682712196299999
1.717749911121958e+18,-0.47849496459999996,1.2019480362000001,9.71520961765
1.717749911321958e+18,-0.27878027343999995,1.1415860597349998,9.714012107799999
1.717749911521958e+18,-0.33535512542,1.1580667877999997,9.69233718105
1.717749911721958e+18,-0.381751144415,1.2053684233500002,9.710846191349999
1.717749911921958e+18,-0.36576082501904766,1.120747964,9.71697202395238
1.717749912121958e+18,-0.36351905820999997,1.2425061951,9.71085367605
1.717749912321958e+18,-0.36350408935999995,1.2092079391500001,9.69322034455
1.717749912521958e+18,-0.16246465301280003,1.2922028502499998,9.705113113449999
1.717749912721958e+18,-0.1706226882839,1.2012370147399998,9.7080994035
1.717749912921958e+18,-0.206271057124,1.21321959685,9.722888649100002
1.717749913121958e+18,-0.14596895599100002,1.20384159855,9.712290687549999
1.717749913321958e+18,-0.17484355381714287,1.2265992737142857,9.713807176857145
1.717749913521958e+18,-0.13720468139850003,1.1988270263,9.7059887925
1.717749913721958e+18,-0.086550018307,1.22654937745,9.693093109200001
1.717749913921958e+18,-0.08060737609999999,1.1676318969999997,9.7109809112
1.717749914121958e+18,-0.05645510101228499,1.1377689972499998,9.715082382199999
1.717749914321958e+18,-0.10582992553500001,1.1703412628500003,9.717941436850001
1.717749914521958e+18,-0.060032661446500005,1.1443553008999998,9.7184054718
1.717749914721958e+18,-0.1370998992915,1.1280691679500001,9.7229485246
1.717749914921958e+18,-0.13031472343142858,1.1050876725714285,9.718312094523808
1.717749915121958e+18,-0.211712242125,1.1706556091,9.7319373321
1.717749915321958e+18,-0.07871381378626499,1.06117327889,9.738890373249998
1.717749915521958e+18,-0.21563408660500002,1.15409255215,9.71500753785
1.717749915721958e+18,-0.0981958007885,1.1141256637499999,9.730373085050001
1.717749915921958e+18,-0.09723779296,1.179853981,9.696648216200002
1.717749916121958e+18,-0.24249572755,1.2055255965999998,9.7083239365
1.717749916321958e+18,-0.2048882184712857,1.2652902440476193,9.693827296619046
1.717749916521958e+18,-0.325370887755,1.1206071853999997,9.752145309400001
1.717749916721958e+18,-0.27226132965699995,1.2011995924249999,9.70601124575
1.717749916921958e+18,-0.30563442993949996,1.121108642585,9.90989476785
1.717749917121958e+18,-0.483329910317,1.60271713259,10.783246125000002
1.717749917321958e+18,-0.34649196624850004,3.5177148743,10.1563796991
1.717749917521958e+18,0.45766577912500006,4.29221928415,8.507745552000001
1.717749917721958e+18,1.522933044485714,5.126895708333334,7.645486842714284
1.717749917921958e+18,0.3593128051590001,6.0075247877499995,6.446307334949999
1.717749918121958e+18,0.0502430191105,6.27985347745,6.25500515
1.717749918321958e+18,0.12439881133649996,6.3220282746,5.510011871400001
1.717749918521958e+18,-0.028770172116500008,5.16613197335,7.968042869649999
1.717749918721958e+18,1.0759849777,4.133893524150001,9.548591102699998
1.717749918921958e+18,0.703634284985,4.1716375350999995,10.0611926423
1.717749919121958e+18,0.49729586792399993,4.698856178250001,10.39108413045
1.717749919321958e+18,0.6177724783761904,4.329853166857142,9.641143995380954
1.717749919521958e+18,0.06087840271099998,4.65031212615,8.347264274550001
1.717749919721958e+18,-0.003382965090000002,6.2517718735,6.35856729125
1.717749919921958e+18,0.1873578872735,6.245245445199999,5.945576110799999
1.717749920121958e+18,0.25055646515849994,5.7623870544999996,5.16468747715
1.717749920321958e+18,-0.9813293152149999,5.11878543085,8.480023201149999
1.717749920521958e+18,-0.455727310183,3.2564481811,9.8413223654
1.717749920721958e+18,-0.40633359634333327,2.705759059380952,10.771222555285716
1.717749920921958e+18,-1.36704721067,2.4836053162500003,10.57777590325
1.717749921121958e+18,-0.6663992157385,3.9557564620999996,10.010635277750001
1.717749921321958e+18,-0.4079391861025,4.3264680633,9.1862770386
1.717749921521958e+18,-0.342255775445,4.668095146200001,8.02166885375
1.717749921721958e+18,-0.256192245519,5.9887538222000005,5.5505475769
1.717749921921958e+18,0.01792522430870001,6.200720535249999,6.2251796722999995
1.717749922121958e+18,0.2695822580000001,5.018870348285715,6.781725899904762
1.717749922321958e+18,0.18544187166450002,4.059475776599999,9.792044838499999
1.717749922521958e+18,0.43620790099500006,2.3712789000999996,10.6498659885
1.717749922721958e+18,0.7818765792899999,2.40716677085,10.826483710999998
1.717749922921958e+18,0.9352700958165002,2.6236465987499997,10.304549080600001
1.717749923121958e+18,1.504446487345,3.0645098192,9.248981643649998
1.717749923321958e+18,1.1946432266700002,3.8255946350500003,8.948818336550001
1.717749923521958e+18,0.6831793212664998,4.8845899429,7.2597233277000015
1.717749923721958e+18,0.7193469674619047,5.942521035333334,6.3956573049523815
1.717749923921958e+18,0.6673272858104999,5.366205917399999,6.347789703400001
1.717749924121958e+18,0.2178644485155,4.6047019729,8.7188964614
1.717749924321958e+18,0.4824991378700001,3.11975244135,9.5448937915
1.717749924521958e+18,0.5672005004834999,3.4429678115500004,10.63875908635
1.717749924721958e+18,0.647493530255,3.0843435745499996,10.626918708999998
1.717749924921958e+18,-0.017872833247000012,4.102241844149999,9.745701210250001
1.717749925121958e+18,0.07339736938204762,4.0358859034285715,8.688189958904761
1.717749925321958e+18,-0.1310375061083,5.04265374765,8.19314476775
1.717749925521958e+18,-0.8679026870750001,6.1888726730500006,6.38139482125
1.717749925721958e+18,-0.794854591325,6.6097299957499995,6.009680305550001
1.717749925921958e+18,-1.01624420934,5.98665069575,5.58799221035
1.717749926121958e+18,0.5530549163790001,5.6475533524,7.67647917945
1.717749926321958e+18,0.36057019041349997,5.014849067700001,8.757344009350001
1.717749926521958e+18,-1.1494383021333334,4.526558401904763,9.432855703666664
1.717749926721958e+18,-0.5684279479795,2.6778189467999995,9.968378151049999
1.717749926921958e+18,-0.03832779693905,1.326249549895,10.147907317900001
1.717749927121958e+18,0.03823798371500001,0.8914038162299999,9.764689224249999
1.717749927321958e+18,0.043364822385999986,1.6595090332000002,9.7247223359
1.717749927521958e+18,-0.7842042389300001,1.75122331235,9.586133033750002
1.717749927721958e+18,-0.31641950223999993,1.36233201595,9.75975698105
1.717749927921958e+18,-0.0036673736589999937,1.7620907135499997,9.604028320300001
1.717749928121958e+18,-0.5244522530571428,1.557475498809524,9.62361615866667
1.717749928321958e+18,-0.39299276733000005,1.6953519974000002,9.570827362100001
1.717749928521958e+18,-0.41804317474,1.7178951187,9.623622573949998
1.717749928721958e+18,-0.5168976058849999,1.7719926224000002,9.6264292374
1.717749928921958e+18,-0.39535036468500007,1.8421217879499998,9.611991760249998
1.717749929121958e+18,-0.4045412521299999,1.8335221710499998,9.609117736799998
1.717749929321958e+18,-0.43028771209000005,1.8108069076,9.6220059356
1.717749929521958e+18,-0.4253725760380952,1.8027582877619046,9.618355669333335
1.717749929721958e+18,-0.4132606201150001,1.7922829285,9.636533226050002
1.717749929921958e+18,-0.43025777436500007,1.8366731186000003,9.60579464725
1.717749930121958e+18,-0.41994422149999994,1.8531313934500002,9.6139526824
1.717749930321958e+18,-0.428626167305,1.9036737899999996,9.5937970963
1.717749930521958e+18,-0.424240287785,1.9431317367999998,9.5850926972
1.717749930721958e+18,-0.4186119918749999,1.9688781967500002,9.5764481734
1.717749930921958e+18,-0.4228207397428572,1.9967192296190475,9.54050327852381
1.717749931121958e+18,-0.4216806106549999,1.9877539443499999,9.56353752135
1.717749931321958e+18,-0.4299134903,1.9670819321,9.567257286150001
1.717749931521958e+18,-0.43876757812499995,1.94149264525,9.586544677799997
1.717749931721958e+18,-0.43303450013999994,1.92413623795,9.588303520149998
1.717749931921958e+18,-0.43885739136,1.91856033335,9.587083557149999
1.717749932121958e+18,-0.43144779967,1.8842741317500002,9.602456588799999
1.717749932321958e+18,-0.43095382690000006,1.8703830184500003,9.6017904739
1.717749932521958e+18,-0.4303622000523809,1.8661193847619044,9.604441746238095
1.717749932721958e+18,-0.427316390985,1.85203118135,9.6034595033
1.717749932921958e+18,-0.4393289108299999,1.8416876907,9.624820083600001
1.717749933121958e+18,-0.43162742615500005,1.8590066757000003,9.6043426666
1.717749933321958e+18,-0.443041191095,1.8908903732,9.59160415645
1.717749933521958e+18,-0.4346436538800001,1.9076031189000002,9.591417045650001
1.717749933721958e+18,-0.44658132934,1.9302435379999998,9.595885253950001
1.717749933921958e+18,-0.43046199255238093,1.961029161761905,9.58049155095238
1.717749934121958e+18,-0.4387600936849999,1.9935468979500002,9.551300468549998
1.717749934321958e+18,-0.4227957916349999,1.9749780121,9.5562401963
1.717749934521958e+18,-0.433281486515,1.9655251692999998,9.57302030185
1.717749934721958e+18,-0.43191931915500004,1.9538344803499998,9.575729667800001
1.717749934921958e+18,-0.4230802002050001,1.9269054794499998,9.592390022200002
1.717749935121958e+18,-0.43686653137500003,1.9063307648000003,9.59489730835
1.717749935321958e+18,-0.4242534746428571,1.8991863359523808,9.591589900428572
1.717749935521958e+18,-0.42961411284999995,1.8877768477499999,9.596079849249998
1.717749935721958e+18,-0.43526486207000004,1.86470981595,9.60682749935
1.717749935921958e+18,-0.42714424896500003,1.8605335007000001,9.6009821548
1.717749936121958e+18,-0.43188189697499996,1.8587596893000005,9.609409629800002
1.717749936321958e+18,-0.423693923955,1.8715431060500003,9.594455726600001
1.717749936521958e+18,-0.42674757384,1.8767672425500002,9.610382606600002
1.717749936721958e+18,-0.4318234470952382,1.9054803903333333,9.59949489047619
1.717749936921958e+18,-0.42712179566,1.9332447967500002,9.581560043199998
1.717749937121958e+18,-0.42019120788500003,1.9629355545,9.577510963449999
1.717749937321958e+18,-0.43162742614500005,1.9639010467499998,9.58168727875
1.717749937521958e+18,-0.42186772155999996,1.9809655609000003,9.543733703549998
1.717749937721958e+18,-0.432360900875,1.9747459946500001,9.56685312665
1.717749937921958e+18,-0.41951012421,1.9513945543000002,9.57716667935
1.717749938121958e+18,-0.440376731875,1.9257603608,9.595046996949998
1.717749938321958e+18,-0.42423209055714284,1.9132285635714286,9.59526796609524
1.717749938521958e+18,-0.437622459405,1.89619683835,9.592315177949999
1.717749938721958e+18,-0.425123451225,1.8744545517000002,9.600607933050002
1.717749938921958e+18,-0.43655218504000004,1.8594931640999994,9.607778022750002
1.717749939121958e+18,-0.42576711273,1.8551147689499998,9.60012144485
1.717749939321958e+18,-0.42664279174999997,1.8560652924499998,9.6039759294
1.717749939521958e+18,-0.43515259552499996,1.8472261732500002,9.6184208908
1.717749939721958e+18,-0.42270669119047627,1.8755569021904759,9.604776763952382
1.717749939921958e+18,-0.43770478821000003,1.9018700409499996,9.59807070915
1.717749940121958e+18,-0.4355642395,1.9461928711000003,9.579030303949999
1.717749940321958e+18,-0.41102277374499996,1.9548523635500001,9.584778350850002
1.717749940521958e+18,-0.438408325195,1.9916009444500002,9.574644424399999
1.717749940721958e+18,-0.435945945735,2.0192035447,9.54486385355
1.717749940921958e+18,-0.41625439453,2.0120559082500002,9.546622695850001
1.717749941121958e+18,-0.44139639718571433,1.9960705784761903,9.571688428714287
1.717749941321958e+18,-0.42956172179499996,1.9699709244,9.576912208600003
1.717749941521958e+18,-0.4334087219250001,1.9539692001500004,9.5750934906
1.717749941721958e+18,-0.43529479981,1.9110384750000002,9.60324245455
1.717749941921958e+18,-0.42870101164999996,1.89237977605,9.59587776955
1.717749942121958e+18,-0.421141731265,1.88063669585,9.59831021125
1.717749942321958e+18,-0.41708516693500003,1.8735414505500003,9.5949721527
1.717749942521958e+18,-0.42656794739,1.85300415805,9.608391746499999
1.717749942721958e+18,-0.41822315762380957,1.853930446142857,9.601554892380952
1.717749942921958e+18,-0.43652973175000004,1.85563867945,9.6142146378
1.717749943121958e+18,-0.42618624114000003,1.8695297927000003,9.607059516900001
1.717749943321958e+18,-0.43359583284000003,1.88693110665,9.60319754795
1.717749943521958e+18,-0.44087070464,1.91846303565,9.59557090765
1.717749943721958e+18,-0.44971730805500004,1.9591035232499998,9.581747154149998
1.717749943921958e+18,-0.43679917144,1.9799177399500003,9.571396179299999
1.717749944121958e+18,-0.4471344648047618,2.001552036761905,9.54829421995238
1.717749944321958e+18,-0.42746607971,2.0003876723499996,9.551712112550002
1.717749944521958e+18,-0.44512934876,1.9955003357000003,9.558919624249999
1.717749944721958e+18,-0.44347528839,1.9591933365000003,9.586118064799999
1.717749944921958e+18,-0.42975631712999995,1.94512259675,9.58330391695
1.717749945121958e+18,-0.45064537812000005,1.91540190125,9.586926383899998
1.717749945321958e+18,-0.42763073731,1.9028430175500002,9.5833787613
1.717749945521958e+18,-0.43972843715714294,1.871586587142857,9.612332480238095
1.717749945721958e+18,-0.436050727845,1.8760786743,9.603354720949998
1.717749945921958e+18,-0.44696303558000006,1.9334169387,9.586948837199998
1.717749946121958e+18,-0.44432851409499996,1.9408340148,9.58658958435
1.717749946321958e+18,-0.46387786101999995,1.9352057190499998,9.5891193237
1.717749946521958e+18,-0.433730552675,1.95947774505,9.587510170049999
1.717749946721958e+18,-0.46568909454500007,1.9834878159999998,9.5740232162
1.717749946921958e+18,-0.438191276535,2.0045340499999997,9.569435256999999
1.717749947121958e+18,-0.4493869236523809,2.0185737828571426,9.553476300857143
1.717749947321958e+18,-0.4319717102049999,2.01872454075,9.541682968150003
1.717749947521958e+18,-0.449208366395,2.01345549765,9.5595707703
1.717749947721958e+18,-0.4453239441,1.9685713348499998,9.5878245163
1.717749947921958e+18,-0.4356241150000001,1.9488049391500002,9.5799957963
1.717749948121958e+18,-0.4395459594799999,1.93183772275,9.587944267200001
1.717749948321958e+18,-0.4361704788300001,1.9168613662000002,9.58651473995
1.717749948521958e+18,-0.4394433157714286,1.8854078456666667,9.601882782047618
1.717749948721958e+18,-0.43134301757500004,1.8786458359500002,9.6024640732
1.717749948921958e+18,-0.43667193603999993,1.87671485135,9.59659627545
1.717749949121958e+18,-0.42522823334000004,1.86028651425,9.60148361205
1.717749949321958e+18,-0.44381957245,1.8656004637999999,9.60684246815
1.717749949521958e+18,-0.43521247101499994,1.8901344452499997,9.6006827773
1.717749949721958e+18,-0.44268193818000007,1.9174900589,9.585167541599999
1.717749949921958e+18,-0.4510905238619048,1.929979444190476,9.584283665190476
1.717749950121958e+18,-0.43376797485499996,1.9470460968999999,9.5813579636
1.717749950321958e+18,-0.42653800964999994,1.95374466705,9.574592033299998
1.717749950521958e+18,-0.40030506134,1.9522402953999998,9.559982414249998
1.717749950721958e+18,-0.42786275481,1.9277287672999996,9.585384590199999
1.717749950921958e+18,-0.41857456969500006,1.9201694871000001,9.592734306299999
1.717749951121958e+18,-0.4325704650750001,1.90690706645,9.59028689565
1.717749951321958e+18,-0.42841660308499996,1.88665418235,9.5953314057
1.717749951521958e+18,-0.43235092162380956,1.8743950326666672,9.602424512619049
1.717749951721958e+18,-0.42246647645,1.86509900675,9.603437049750001
1.717749951921958e+18,-0.43078916930999994,1.8677185591999996,9.59621456905
1.717749952121958e+18,-0.43371558379,1.8595380706500002,9.6097838516
1.717749952321958e+18,-0.43182202149000004,1.8705701293500003,9.61020298015
1.717749952521958e+18,-0.43590852355000004,1.8970500640499999,9.590623695400001
1.717749952721958e+18,-0.43698628235000003,1.9285071486499998,9.580325111349998
1.717749952921958e+18,-0.4474694824190476,1.941762085,9.595025613
1.717749953121958e+18,-0.43838587189,1.9671492919499998,9.582083953799998
1.717749953321958e+18,-0.44264451598999993,1.9910845185,9.54560481255
1.717749953521958e+18,-0.43081910705500004,1.9975959778000003,9.5589271087
1.717749953721958e+18,-0.45023373412500006,1.9632873229499996,9.575437774650002
1.717749953921958e+18,-0.43881248473,1.9501596221500002,9.58017542265
1.717749954121958e+18,-0.44584037018,1.9352955322,9.590915588449999
1.717749954321958e+18,-0.4281881495904762,1.915666351333333,9.586343667190475
1.717749954521958e+18,-0.4341721344050001,1.8981727295500002,9.59764409645
1.717749954721958e+18,-0.41709265136499996,1.8847381667499998,9.60347447205
1.717749954921958e+18,-0.42756337738,1.8856288146500002,9.592861541800001
1.717749955121958e+18,-0.42044567870000005,1.8674790573499997,9.6073065034
1.717749955321958e+18,-0.43551933288500005,1.8789077912,9.60351937875
1.717749955521958e+18,-0.43556423951,1.8946400756499997,9.594066535900001
1.717749955721958e+18,-0.434508934015,1.9216888275500001,9.5865222245
1.717749955921958e+18,-0.43880179269047614,1.946366795142857,9.580584215523809
1.717749956121958e+18,-0.45036096955,1.9716249845500002,9.5811483993
1.717749956321958e+18,-0.438056556695,1.9944225769,9.572526328999999
1.717749956521958e+18,-0.44528652191499996,2.0147428208000004,9.5360771255
1.717749956721958e+18,-0.44149939728,2.0016525420999995,9.56640406035
1.717749956921958e+18,-0.44273432921500006,1.98484998315,9.576350875850002
1.717749957121958e+18,-0.44334805297999996,1.9666553192999998,9.575138397249999
1.717749957321958e+18,-0.43282849993333333,1.9515845162380954,9.575380750238097
1.717749957521958e+18,-0.4407659225449999,1.9207083664,9.59634928895
1.717749957721958e+18,-0.42961411286000006,1.9046093444500003,9.595046997
1.717749957921958e+18,-0.421710548395,1.892686638,9.599170921399999
1.717749958121958e+18,-0.41007973481000004,1.88306165305,9.5953089523
1.717749958321958e+18,-0.41534877777000007,1.8609900513000004,9.60343704985
1.717749958521958e+18,-0.41983943939,1.86213516995,9.6082046357
1.717749958721958e+18,-0.42653444562857135,1.8858854239047622,9.601241259047619
1.717749958921958e+18,-0.43091640472000003,1.9126551132000003,9.587959236199998
1.717749959121958e+18,-0.4486170959550001,1.9249295882999995,9.59096049495
1.717749959321958e+18,-0.44324327086999993,1.9556831360500002,9.580931350750001
1.717749959521958e+18,-0.4492682418799999,1.9858229600000001,9.579838623099999
1.717749959721958e+18,-0.4244124298100001,2.0177740174000003,9.53115985105
1.717749959921958e+18,-0.449679885855,1.9925364990000003,9.56641902925
1.717749960121958e+18,-0.437502708445,1.9794387359,9.5717105255
1.717749960321958e+18,-0.44628622872857143,1.9640799604285717,9.575052860809523
1.717749960521958e+18,-0.43238335418500007,1.9444415130000003,9.5832215881
1.717749960721958e+18,-0.43691143799,1.9197877806999997,9.596281929000002
1.717749960921958e+18,-0.42702449799000003,1.9094966812999998,9.59176881415
1.717749961121958e+18,-0.4230802002000001,1.9047290955,9.589837829599999
1.717749961321958e+18,-0.41829764557000004,1.8825152893000001,9.59285405735
1.717749961521958e+18,-0.422197036735,1.87110900875,9.598467384350002
1.717749961721958e+18,-0.4246740286761905,1.8659910800952384,9.60737849647619
1.717749961921958e+18,-0.42797502136,1.88200634755,9.605031234749998
1.717749962121958e+18,-0.4377272415149999,1.89175856785,9.59125238815
1.717749962321958e+18,-0.4434977417,1.9234551543000002,9.58961329655
1.717749962521958e+18,-0.44997926330000004,1.9520531845999998,9.580182907100001
1.717749962721958e+18,-0.45159590151,1.9814520492,9.565214035050001
1.717749962921958e+18,-0.44614723205499995,1.9896549912000001,9.55821608735
1.717749963121958e+18,-0.44535958425714284,1.9873529924285716,9.568003234904761
1.717749963321958e+18,-0.452194656375,1.9789971542499998,9.575273116949997
1.717749963521958e+18,-0.43984533690999994,1.9705547103500003,9.5697496033
1.717749963721958e+18,-0.44545866393000005,1.9362161179000001,9.58472595975
1.717749963921958e+18,-0.43221869659,1.9274443589,9.584763381950001
1.717749964121958e+18,-0.43603575897,1.9168014907,9.58358084105
1.717749964321958e+18,-0.42323737334499995,1.9069968795500003,9.59093055715
1.717749964521958e+18,-0.43664199829,1.87895269775,9.600480697550001
1.717749964721958e+18,-0.42857306343809526,1.8761556570952382,9.608583134190477
1.717749964921958e+18,-0.43274260711999996,1.894834671,9.601955131649998
1.717749965121958e+18,-0.430893951415,1.9259175338000003,9.585444465699998
1.717749965321958e+18,-0.445017082215,1.9317404252000003,9.5885729598
1.717749965521958e+18,-0.437794601435,1.9541413421999998,9.584606208950001
1.717749965721958e+18,-0.44863954926,1.9818562088,9.571500961249999
1.717749965921958e+18,-0.4269272003299999,1.9967726897499998,9.5434193572
1.717749966121958e+18,-0.4458442905904762,1.983910151904762,9.56919361666667
1.717749966321958e+18,-0.429352157595,1.98218552395,9.571119255100003
1.717749966521958e+18,-0.4398153991699999,1.9708316346,9.577451088
1.717749966721958e+18,-0.42307271576999994,1.9406843261,9.57726397705
1.717749966921958e+18,-0.432398323055,1.91555159005,9.596027458200002
1.717749967121958e+18,-0.4160373458850001,1.9031274261500002,9.5971800613
1.717749967321958e+18,-0.41800575255499994,1.8962342606000004,9.600398368899999
1.717749967521958e+18,-0.41091692242380956,1.8850942120952379,9.587847682333333
1.717749967721958e+18,-0.41724234008999994,1.8780021743,9.605607536249996
1.717749967921958e+18,-0.42912014008000005,1.89675068665,9.604567199799998
1.717749968121958e+18,-0.43173220825,1.92262438215,9.587974205
1.717749968321958e+18,-0.42991349030000003,1.9359242248000001,9.58478583525
1.717749968521958e+18,-0.44381208802000005,1.9603010330500001,9.5826602555
1.717749968721958e+18,-0.44338547516000004,1.9777472534,9.5729454575
1.717749968921958e+18,-0.4312532043400001,2.00115108495,9.53912329105
1.717749969121958e+18,-0.44789716447619055,1.9817859976666663,9.574810507619048
1.717749969321958e+18,-0.43379791258999995,1.9687734146499998,9.5736639633
1.717749969521958e+18,-0.44170147705999996,1.9574868851000002,9.5773986968
1.717749969721958e+18,-0.42456960296,1.9387234037999999,9.58680663295
1.717749969921958e+18,-0.427316390995,1.91135282135,9.59273430625
1.717749970121958e+18,-0.41153919983,1.9028879240999999,9.6018578339
1.717749970321958e+18,-0.41671842956999994,1.8914666748499998,9.593789611899998
1.717749970521958e+18,-0.41592080254285707,1.871372746095238,9.606052682
1.717749970721958e+18,-0.43179956817000004,1.8821710052499998,9.60557759845
1.717749970921958e+18,-0.422361694335,1.9045868911500001,9.5946952286
1.717749971121958e+18,-0.43743534850499993,1.8181865616,9.603773849500001
1.717749971321958e+18,-0.46708868409,1.7327292710000002,9.6410014344
1.717749971521958e+18,-0.4499642944350001,1.7293463058499998,9.6455594559
1.717749971721958e+18,-0.46637766264499997,1.77242671965,9.570108856000001
1.717749971921958e+18,-0.47250313894761903,1.8012043762380956,9.59462644304762
1.717749972121958e+18,-0.4876633987350001,1.8026264190999999,9.58292969515
1.717749972321958e+18,-0.4611161041300001,1.7962646484499998,9.613294052099999
1.717749972521958e+18,-0.54144655609,1.7856891402500001,9.605487785300001
1.717749972721958e+18,-0.546191688545,1.7731527099999997,9.62185624695
1.717749972921958e+18,-0.5649776229850001,1.8011220474500003,9.584845710849997
1.717749973121958e+18,-0.55152809143,1.7707052994,9.630478317249999
1.717749973321958e+18,-0.556325614925,1.7458120650999998,9.6055476608
1.717749973521958e+18,-0.5186571611666667,1.745463147857143,9.636325443809524
1.717749973721958e+18,-0.49761021423499996,1.5070810089999997,9.65609005735
1.717749973921958e+18,-0.38101018524999997,1.4784380721500001,9.64657733925
1.717749974121958e+18,-0.25676106262500004,1.41526194765,9.7029650803
1.717749974321958e+18,-0.303823196425,1.39247184,9.69906568905
1.717749974521958e+18,-0.303104690555,1.40689434805,9.6746888809
1.717749974721958e+18,-0.462133987425,1.4809902649,9.674614036649999
1.717749974921958e+18,-0.0678303745847619,1.3783551243809524,9.64269790657143
1.717749975121958e+18,-0.5339920578249999,1.2938793639500001,9.68956793965
1.717749975321958e+18,-0.108277336122,1.3886847153499997,9.6754073867
1.717749975521958e+18,-0.24212150573740004,1.3082494812500003,9.709948059150001
1.717749975721958e+18,-0.17209712219005,1.2176279297000001,9.7134358063
1.717749975921958e+18,-0.24908951569349996,1.2645478590500001,9.70035301205
1.717749976121958e+18,-0.25323589325199997,1.208811264,9.7285543671
1.717749976321958e+18,-0.33550944737142857,1.2449468339523808,9.710492641
1.717749976521958e+18,-0.299242721555,1.25489293665,9.715860763499998
1.717749976721958e+18,-0.33545242308499995,1.2857138443499998,9.680713851850001
1.717749976921958e+18,-0.17080231474949997,1.25010289765,9.70087692265
1.717749977121958e+18,-0.20229682160149998,1.29211303715,9.65973497775
1.717749977321958e+18,-0.2965109024,1.2792772292999999,9.702254058750002
1.717749977521958e+18,-0.303591178895,1.27986101525,9.688213256950002
1.717749977721958e+18,-0.24736061096500003,1.2355531540000002,9.70706655125
1.717749977921958e+18,-0.2265574428047619,1.2076814706666665,9.72670891909524
1.717749978121958e+18,-0.29127179717449997,1.2526625748,9.688520118749999
1.717749978321958e+18,-0.09869725800285001,1.1609782333500003,9.70060748285
1.717749978521958e+18,-0.39594911956350004,1.21994810485,9.7226192092
1.717749978721958e+18,-0.1356928253104,1.1455528107499997,9.738239227250002
1.717749978921958e+18,-0.22467528534520004,1.1972552949000002,9.7039829635
1.717749979121958e+18,-0.543744277955,1.2273053053999998,9.71063662725
1.717749979321958e+18,-0.100491027839,1.2180884008095236,9.690434352333332
1.717749979521958e+18,-0.6248830490099999,1.2910727004999998,9.652183181700002
1.717749979721958e+18,-0.35671570587,1.2334874496499997,9.70374346175
1.717749979921958e+18,-0.35306330107499995,1.2219913559000004,9.7151497421
1.717749980121958e+18,-0.29014913176500007,1.2031904525500001,9.7098507613
1.717749980321958e+18,-0.22739962006,1.20451519785,9.7007571716
1.717749980521958e+18,-0.47377228546000005,1.27491380315,9.699020782400002
1.717749980721958e+18,-0.3576990182047619,1.198407897952381,9.722788499999998
1.717749980921958e+18,-0.170001480095,1.2934003600500001,9.695196235649998
1.717749981121958e+18,-0.35771113586,1.26052871705,9.70283036045
1.717749981321958e+18,-0.29097990417499997,1.3216915283000001,9.6932727355
1.717749981521958e+18,-0.216105606085,1.3313239973500002,9.6864544144
1.717749981721958e+18,-0.3357218628,1.30783035265,9.6732443847
1.717749981921958e+18,-0.28848758697,1.31835346975,9.67868556985
1.717749982121958e+18,-0.35606455993999997,1.28954587545,9.6835279998
1.717749982321958e+18,-0.2242051914761905,1.3033895873333332,9.691410893
1.717749982521958e+18,-0.222549705491,1.25162972265,9.70405780795
1.717749982721958e+18,-0.1325493621785,1.2160786514500002,9.70392308805
1.717749982921958e+18,-0.23383623504499998,1.2034075012999998,9.7160628432
1.717749983121958e+18,-0.19362236023,1.1901525651,9.713600463850002
1.717749983321958e+18,-0.190740852355,1.17188305665,9.716571785049998
1.717749983521958e+18,-0.23099963378,1.1664343873499998,9.731884941049998
1.717749983721958e+18,-0.22131833757619046,1.1775797816666667,9.717528010761907
1.717749983921958e+18,-0.21849314118000002,1.1944411467999998,9.71125783535
1.717749984121958e+18,-0.220798347465,1.22112316135,9.70276300055
1.717749984321958e+18,-0.24375311278999998,1.1759471055000001,9.71418424975
1.717749984521958e+18,-0.24401506804900003,1.24189995575,9.680856056100001
1.717749984721958e+18,-0.2868110733,1.21261335745,9.683468124400001
1.717749984921958e+18,-0.393045158385,1.2224329377,9.7160478745
1.717749985121958e+18,-0.2442777361142857,1.2073607090952383,9.706130283809522
1.717749985321958e+18,-0.32216754913499995,1.20379669185,9.7113850708
1.717749985521958e+18,-0.284273849495,1.1894415435999999,9.7206582871
1.717749985721958e+18,-0.31674881745500005,1.17819992065,9.721840827949999
1.717749985921958e+18,-0.28076364899,1.2707749099999999,9.7004054032
1.717749986121958e+18,-0.37238811492,1.26991419985,9.697344268799998
1.717749986321958e+18,-0.317781669615,1.2700713730500002,9.7185177383
1.717749986521958e+18,-0.05108876037207004,0.835068466195,10.500057519250001
1.717749986721958e+18,0.4550251987928572,3.6449631172857138,10.631484570761904
1.717749986921958e+18,0.7595505066449999,5.29452747345,8.67569629675
1.717749987121958e+18,0.31958541870345003,5.536080161999999,7.5057591934
1.717749987321958e+18,0.37574862672299997,5.9242304993,4.96410459125
1.717749987521958e+18,0.3647315368648,5.8431665725,6.410015304550001
1.717749987721958e+18,0.17281562805599998,5.48704962165,6.04410122695
1.717749987921958e+18,1.3804293824005,3.3776511383,9.8314129715
1.717749988121958e+18,0.8219336373523809,2.3791311428095234,10.90624178252381
1.717749988321958e+18,0.898020057695,2.1653596114499996,11.3459035725
1.717749988521958e+18,1.61925773625,2.796327507,9.680863540299999
1.717749988721958e+18,1.6461268615500004,3.4306409454000004,9.142949638400001
1.717749988921958e+18,1.172856033335,4.3886188201,8.1457009276
1.717749989121958e+18,0.6777456207620001,5.6258709413,6.82424141695
1.717749989321958e+18,0.8040754166349998,5.4581671829000005,6.3955853119
1.717749989521958e+18,0.1339072527114286,4.780594417,7.176041630476192
1.717749989721958e+18,-0.11270812224480001,2.74282875825,9.98055532875
1.717749989921958e+18,-0.22457798766270004,2.0594174194,10.6384821633
1.717749990121958e+18,0.5238880691600001,1.908359047,11.141548529000001
1.717749990321958e+18,0.8680748290535,2.6560991134000003,9.88948471075
1.717749990521958e+18,1.31101123808,3.1575039368,9.3524614564
1.717749990721958e+18,1.203123092545,3.7413722762499995,8.980013465899999
1.717749990921958e+18,0.67930986786,4.9589328461,8.117783981299999
1.717749991121958e+18,0.11783353534557142,5.615579485095238,6.405094822666667
1.717749991321958e+18,0.293307563783,5.534096786599999,6.6817078170499995
1.717749991521958e+18,-0.163519958475,4.43677368165,8.055086860700001
1.717749991721958e+18,0.604719978296,2.9965586242500004,9.764749099700001
1.717749991921958e+18,0.6253994750784999,2.3382126617500005,10.492288672750002
1.717749992121958e+18,1.0618843002349998,2.71056335445,10.9580151895
1.717749992321958e+18,1.20277132412,2.8385023040500004,9.8265480879
1.717749992521958e+18,0.9041555132585715,3.6153176225238095,9.095243486666666
1.717749992721958e+18,0.3657344512895,4.56980953225,7.9241915588
1.717749992921958e+18,0.14644047545599997,5.389699562100001,7.26583811185
1.717749993121958e+18,0.39019358825899997,5.51473455045,6.939277198799999
1.717749993321958e+18,0.12337344360250002,4.951725334100001,7.063241912850001
1.717749993521958e+18,0.8057968368163999,3.5955679778500005,9.308961914
1.717749993721958e+18,0.615437690699,3.28018132785,10.0659602276
1.717749993921958e+18,0.11238058908285715,2.561722869809524,10.437758854285715
1.717749994121958e+18,0.43788441467850003,2.8332706833,11.02134100325
1.717749994321958e+18,0.21641995238720005,2.8765157547499998,9.331624786199999
1.717749994521958e+18,0.02155517578,3.7307069549500005,9.0235429459
1.717749994721958e+18,0.26368416595849997,5.074260520999999,7.62974636085
1.717749994921958e+18,0.35280883026300003,5.8008420868,6.21084697725
1.717749995121958e+18,0.33972603607330004,5.6788158418000005,6.1834464570500005
1.717749995321958e+18,0.6526952132950001,4.4427836838,7.712748756299999
1.717749995521958e+18,1.0525611877285714,3.254339708714286,9.636318315809524
1.717749995721958e+18,1.62594133763,2.5684114609,10.44148432235
1.717749995921958e+18,0.0686397628715,1.31769483941,10.6427333221
1.717749996121958e+18,-0.8076230392500001,0.8522153091699998,9.823816268900002
1.717749996321958e+18,-0.39141355133035,1.00483044438,9.706415405250002
1.717749996521958e+18,-0.3450848922765,0.9198446731500001,9.73001383205
1.717749996721958e+18,-0.47758186340000003,0.954849380525,9.7264362716
1.717749996921958e+18,-0.49227630616666657,0.882436392642857,9.742789764428574
1.717749997121958e+18,-0.53661909486,0.8895327072149998,9.7371015931
1.717749997321958e+18,-0.46014312743846164,0.842816584676923,9.734982921384617
1.717749997521958e+18,,,
