Timestamps,Gyro_X,Gyro_Y,Gyro_Z
1.7177498461244398e+18,0.0658415147052381,0.006364911639233334,-0.016128488808714293
1.7177498463244398e+18,0.20345175193,0.0038050587870200004,-0.12523152064699997
1.7177498465244398e+18,0.11565868594199999,-0.003984017798075,0.0013570210425500012
1.7177498467244398e+18,0.23918076158000004,0.01902100511416,0.10027192644800001
1.7177498469244398e+18,0.29159220306999994,-0.05588647667485001,-0.0451921788496
1.7177498471244398e+18,0.42793821991000003,0.0073124107552,0.12277465212000001
1.7177498473244398e+18,0.5188189566050001,-0.004718966386150001,0.0708647268855
1.7177498475244398e+18,0.16728198819952378,-0.021321440660242857,0.013703903448942859
1.7177498477244398e+18,-0.44425697028499994,-0.15984005928300002,0.035932491997049995
1.7177498479244398e+18,-0.579765181245,-0.139758402484,0.011653561123139998
1.7177498481244398e+18,-0.17070743884019998,-0.1952202521225,-0.17474272549499997
1.7177498483244398e+18,0.20187880168855,-0.004213732457450001,-0.068094193932
1.7177498485244398e+18,0.479113382095,-0.020874617570750004,-0.08580443840999999
1.7177498487244398e+18,0.70522164108,-0.06860950911710001,-0.0063293573219999994
1.7177498489244398e+18,0.3491544319,-0.1215584009875,0.1403324674942857
1.7177498491244398e+18,-0.10843230596789999,0.0119511936743,-0.017649252165900003
1.7177498493244398e+18,-0.25872666294049995,0.19243705115300003,0.05003423199889999
1.7177498495244398e+18,-0.24510919003999998,0.10418318157449999,0.027114000035049997
1.7177498497244398e+18,0.0075752445955,-0.0304142050652,0.0065508397761099985
1.7177498499244398e+18,0.2365970787215,0.12902319785605001,-0.03426036449382
1.7177498501244398e+18,0.32949182242499997,0.060784931850424995,-0.04459725618564999
1.7177498503244398e+18,0.462914381915,0.07115055243097,-0.05854995865510001
1.7177498505244398e+18,0.49626305131428566,0.11271111773857143,0.05250543196190477
1.7177498507244398e+18,-0.022510437291500002,0.058280439158450006,0.10843991023249999
1.7177498509244398e+18,-0.160641768575,-0.014969288928999994,0.06005600537185
1.7177498511244398e+18,-0.44041986166499997,-0.08590627056290001,-0.013353897874583501
1.7177498513244398e+18,-0.44540930241500004,-0.112828589881,0.050085819233
1.7177498515244398e+18,-0.2792742460945,-0.023282005917499994,0.011829797772461499
1.7177498517244398e+18,0.18529399484400003,0.19469050765700002,0.012467440241215
1.7177498519244398e+18,0.569899442647619,-0.02684334457742858,-0.17821089981119048
1.7177498521244398e+18,0.4696900278249999,-0.12633090707634997,-0.07791874315250001
1.7177498523244398e+18,0.56706121564,0.090902507209,-0.06721365843000002
1.7177498525244398e+18,0.1214229994728,0.2064102046265,0.019756389852650002
1.7177498527244398e+18,-0.20110408627000004,0.07110240189650001,0.03454923049834999
1.7177498529244398e+18,-0.7119829922900001,-0.0538369050486,0.026953675354365
1.7177498531244398e+18,-0.47071679085500007,0.025668876982500005,0.019747503613899996
1.7177498533244398e+18,-0.35080208310476185,-0.042885827793809526,0.04400507983880953
1.7177498535244398e+18,0.0277857224454,0.22516079116900004,0.03805507988287
1.7177498537244398e+18,0.5574587225900001,0.01200468820349999,-0.027241718058750003
1.7177498539244398e+18,0.286277976635,-0.22166712656500004,-0.098087724296
1.7177498541244398e+18,0.5406529635199999,-0.11922677792200001,-0.0022313209023500018
1.7177498543244398e+18,0.3319668337252,-0.0598897930172,0.04098889905840001
1.7177498545244398e+18,-0.08416406391289999,-0.03666699704417499,0.03632882695799999
1.7177498547244398e+18,-0.145776075972381,0.018094083381999998,-0.010036867400857142
1.7177498549244398e+18,-0.277683952821,-0.07533678384950002,0.052156117060725
1.7177498551244398e+18,-0.4970918580900001,-0.12460068035049998,0.0835346536655
1.7177498553244398e+18,-0.405082951495,-0.21997445864049997,0.1008984309085
1.7177498555244398e+18,-0.310043508565,0.44683304131,0.020854531646499995
1.7177498557244398e+18,0.07442834472439999,0.31752099394499994,0.033087736834550005
1.7177498559244398e+18,0.5846043944400001,-0.09970423900445,-0.0255407727782
1.7177498561244398e+18,0.58549255728,-0.198922682184,-0.09437996223850001
1.7177498563244398e+18,0.5882394995,0.047962526817933324,-0.02939447535619048
1.7177498565244398e+18,0.0433359095815,0.13966646427355,0.01056133196725
1.7177498567244398e+18,0.028447484088200005,0.034469059856300006,0.022571144974700003
1.7177498569244398e+18,-0.3386664963305,-0.302440919353,0.0579443044025
1.7177498571244398e+18,-0.6258106708500001,0.009623692084150003,0.06215408132350002
1.7177498573244398e+18,-1.12254694098,-0.3551324896304999,-0.0826378786
1.7177498575244398e+18,-0.9375101089349999,0.4486610710650001,0.1701061342367
1.7177498577244398e+18,-0.20632497628904764,0.3173282220971429,-0.01961304460361905
1.7177498579244398e+18,0.0358903940995,-0.062074872154999995,-0.014324958202949998
1.7177498581244398e+18,-0.038531381057899994,-0.010102313014600003,0.0259697586415
1.7177498583244398e+18,-0.067532902308,-0.037175298761,0.08308771885310001
1.7177498585244398e+18,-0.0589118395442,-0.07755931221054,-0.019859371834650003
1.7177498587244398e+18,0.039953653515499996,0.0291631009193,0.013994506455450001
1.7177498589244398e+18,0.031392725557299994,0.06700208224050001,0.014145848376234999
1.7177498591244398e+18,0.043988594342380956,0.019105547075142854,0.004129494928212381
1.7177498593244398e+18,0.06322722811423001,-0.0462562940555,-0.04430958629815
1.7177498595244398e+18,0.135124785299,0.082448005487,0.0038528123056500003
1.7177498597244398e+18,-0.047604098963250005,0.04983433001149999,-0.002271504560315
1.7177498599244398e+18,0.045422358087649994,0.036156938223249994,-0.0195713158477
1.7177498601244398e+18,0.0805951596205,-0.00953981460815,-0.013119630003000001
1.7177498603244398e+18,0.00487196981587,-0.0014257630807700003,0.006409043795530001
1.7177498605244398e+18,-0.00699037752975,0.031406250223999996,0.02054845241905
1.7177498607244398e+18,-0.019178390545714283,-0.004251477375190475,-0.0032176658277619044
1.7177498609244398e+18,-0.02098385554285,0.001138112938335,0.013762168900649999
1.7177498611244398e+18,-0.004959032789249999,0.00043391509680749995,-0.0025745532939830005
1.7177498613244398e+18,-0.003182634877105,0.0014673598809250002,0.0018319328431890003
1.7177498615244398e+18,-0.0005441579065450001,-0.00021558818403500003,0.0009747937962130001
1.7177498617244398e+18,0.004858611512,-0.0002016470886915003,0.0006139833712470002
1.7177498619244398e+18,0.01329367377265,0.003183982602735,0.002262578764972
1.7177498621244398e+18,0.025116741923333335,-0.0010841032767,-0.0003936938731328572
1.7177498623244398e+18,0.042193899117499996,-0.013550979771974999,-0.010198869696059999
1.7177498625244398e+18,0.0452765339975,-0.005267018033049999,0.0042592142535
1.7177498627244398e+18,0.020602570285024997,-0.00342420539803,0.0012806404905749999
1.7177498629244398e+18,-0.005047899022138501,0.0002713306922249999,0.00044493221220850006
1.7177498631244398e+18,-0.0010971103736299999,0.000677423999775,0.0016207722480300005
1.7177498633244398e+18,0.00020132626813499998,-0.0020095780838899997,-0.00024535760749
1.7177498635244398e+18,-0.004577108226207619,-0.0031985170319095237,-0.0002739020690333333
1.7177498637244398e+18,-0.026429138052999995,0.006063340395399,-0.00209065393424
1.7177498639244398e+18,-0.0197913448775,0.0025657852644849996,0.0008121789781750001
1.7177498641244398e+18,-0.012626938801100001,0.00477175889535,0.00404134157579
1.7177498643244398e+18,-0.010565772232600001,0.00081105098353,0.003618088702260001
1.7177498645244398e+18,0.01160805980955,0.005551201629154999,0.00294876570111
1.7177498647244398e+18,0.019029983691999996,0.004129942937437499,0.00281621086174
1.7177498649244398e+18,0.0169907264878,-0.0014821646618349998,0.0021289751166685
1.7177498651244398e+18,0.010622632302142856,-0.00011765532259809511,0.002564201918585714
1.7177498653244398e+18,0.0147279635075,-0.00196449243255,-0.0005246781802300002
1.7177498655244398e+18,-0.001296964165535,-0.005641878559644998,0.00093380566691
1.7177498657244398e+18,-0.024690007535500002,0.0006026696179149999,0.0017103574471000003
1.7177498659244398e+18,-0.01899373452235,-0.011933156161185,-0.00029271204244999977
1.7177498661244398e+18,-0.0093758587717,-0.0049253247325350006,0.00781994669289
1.7177498663244398e+18,-0.015913734002800002,-0.00891136954316,0.0011845398403095002
1.7177498665244398e+18,-0.006850240574904762,-0.0007192798940238094,0.0016431656135142863
1.7177498667244398e+18,-0.0032224478520840004,0.003543161600785,0.001905385049685
1.7177498669244398e+18,-0.008721995190400001,-0.00072398092595,-0.0008509201461450001
1.7177498671244398e+18,-0.012750406761250003,0.0019740970342699998,0.00015875783869000014
1.7177498673244398e+18,0.00621277124984,0.0104541641313,-0.0037994896994700002
1.7177498675244398e+18,0.010717813775845,0.003942543384839999,-0.00018980859313665003
1.7177498677244398e+18,0.007051642593675002,-0.00050830291597,0.0004949669702499999
1.7177498679244398e+18,0.01656024761152381,-0.0016712966773333334,-0.0010782170519714285
1.7177498681244398e+18,0.022221696377,-0.00021235259482850003,0.001460894360285
1.7177498683244398e+18,0.00943837990564,-0.00325566098325,0.000938579306225
1.7177498685244398e+18,-0.0132279647052,0.004810351971950001,0.00026099120734325
1.7177498687244398e+18,-0.011023810692249999,-0.0007669521728644998,-0.0028187752002799995
1.7177498689244398e+18,-0.009384792717349998,0.0010178413126049998,-0.00014796162141
1.7177498691244398e+18,-0.01461549624705,-0.0037247159169649996,-0.0004331879899699998
1.7177498693244398e+18,-0.01088986455,-0.004329164908209999,0.0045576702105450005
1.7177498695244398e+18,-0.009766904859619048,0.007366891146842858,0.006363498302047619
1.7177498697244398e+18,0.005359776502535,0.003415459534175,-0.00575148426596
1.7177498699244398e+18,0.043331493996,0.007300171011324999,-0.0044953283973
1.7177498701244398e+18,0.0009817727725249996,-0.02515411258185,-0.020527152181349997
1.7177498703244398e+18,0.006171383033475,0.006855315982562499,0.017479030846350004
1.7177498705244398e+18,0.020209069951350002,-0.00097127731416,-0.012526006763785003
1.7177498707244398e+18,-0.006368090285205,0.0043924976840899995,0.01157294713288
1.7177498709244398e+18,0.040615120970095245,-0.00694718061147619,0.0035834097684285704
1.7177498711244398e+18,-0.06691473696735001,-0.003658731199649999,-0.0077036858189355
1.7177498713244398e+18,-0.030655743914700006,0.005995470786200001,-0.00023063587132289993
1.7177498715244398e+18,-0.008161074563949999,-0.0031995168772099994,0.002366884652285
1.7177498717244398e+18,0.0026011299283000004,-0.002601180260755,-0.0022770352662249997
1.7177498719244398e+18,0.019635062944,0.008237325441299502,0.00380176008925385
1.7177498721244398e+18,0.020484642475050004,0.00113691588651,0.0042720468014700004
1.7177498723244398e+18,0.022408100110952383,0.0018109147259333335,-0.0004905261697333333
1.7177498725244398e+18,0.015439637285000002,-0.0002944537555355,0.0016076417407549996
1.7177498727244398e+18,0.006927611141045,-0.0007402808753635001,0.00022027674132999998
1.7177498729244398e+18,0.0025461924000290004,0.002972281631204999,0.0025286714720550003
1.7177498731244398e+18,-0.005463815515370001,0.001708165416565,-0.00073872759247
1.7177498733244398e+18,-0.0062031612265,-0.002135273348535,-0.0034844815092
1.7177498735244398e+18,-0.01436297090335,0.00240813264387,0.00011980726854449999
1.7177498737244398e+18,-0.0081358534281,-0.001489358849435,-0.000590437086095
1.7177498739244398e+18,-0.0038435265803857138,0.001404618012849762,0.0012153328530142861
1.7177498741244398e+18,0.0009929085329500001,0.0032214302457320002,0.0012344359069449997
1.7177498743244398e+18,0.006446581695,-0.005781474185575,0.012509815301124997
1.7177498745244398e+18,-0.002654246376609999,0.00854095028567,0.009562437202259999
1.7177498747244398e+18,0.017660318501900002,-0.0008573972503749999,0.0017022261862049998
1.7177498749244398e+18,0.0029392608615450002,0.00414751226791,-0.00720991025452
1.7177498751244398e+18,0.010204247664150002,0.001709639863093,-0.0021272305979209995
1.7177498753244398e+18,0.02066668890238095,0.002765857791987619,0.004835057427071428
1.7177498755244398e+18,0.0073215018430750015,-0.008884343573815,0.0011776636587700002
1.7177498757244398e+18,-0.0031833857417599997,-0.002224150718915,0.0010524676763235
1.7177498759244398e+18,-0.0049298340221,-0.0086126423792,-0.00884503768714
1.7177498761244398e+18,-0.00767456942695,0.0020197614095449996,0.0019173364387699999
1.7177498763244398e+18,-0.01276672254215,0.0009878263342799998,-0.00133498607905
1.7177498765244398e+18,-0.015053920495399997,0.0020063843461800004,0.0027104023960315
1.7177498767244398e+18,-0.007994660464571429,-5.7710733917619035e-05,-0.0005784914829047621
1.7177498769244398e+18,-0.009518496039800001,-0.000522668845949,-0.000545850570765
1.7177498771244398e+18,-0.011076031648099999,-0.0033298125839825005,-0.00151862470086
1.7177498773244398e+18,-0.0046632208235450005,0.0005438052583385001,-0.00154072526496
1.7177498775244398e+18,-0.0034909550370609997,0.0008962715626000001,0.0017555104452650003
1.7177498777244398e+18,-0.00405263228458,-0.00084450173899,-0.0005111332749734999
1.7177498779244398e+18,-0.004556108609364999,-0.0012275275660050002,-0.00048017852247650005
1.7177498781244398e+18,0.0103632818782,0.002024443331255,-0.0007935518922439998
1.7177498783244398e+18,0.017003486864285714,0.005466183569666665,0.001543519580495238
1.7177498785244398e+18,0.016063158168,0.000574659171955,-0.000353830540575
1.7177498787244398e+18,0.010336834611999999,0.0045795788637325,-0.0058137230463115
1.7177498789244398e+18,0.015706459014,-0.0015419536373199997,0.0006549367689999995
1.7177498791244398e+18,0.009805465024099997,0.0006217230807999997,0.004201817943149999
1.7177498793244398e+18,-0.0016691111288850001,-0.000522052089045,0.00013160743981300004
1.7177498795244398e+18,-0.0095729823113,0.0006060500164449997,-0.00010556943007749997
1.7177498797244398e+18,-0.004104135631476191,-0.001610670970428571,-0.0017276124008523807
1.7177498799244398e+18,-0.005218153639050001,-0.0008892744663030001,-0.00013476980386999994
1.7177498801244398e+18,-0.007582361181149999,-0.00092089645333,-0.00054638103468345
1.7177498803244398e+18,-0.008575768407950001,-0.00149523357392,-0.00018242801892799998
1.7177498805244398e+18,-0.00487285801215,-0.00011100275440500008,0.00011314581503149999
1.7177498807244398e+18,-0.00433228955385,-0.0004793046158615001,-9.517130679850004e-05
1.7177498809244398e+18,-0.005193052190599999,-1.994008124999976e-06,-0.0007700609159815
1.7177498811244398e+18,-0.003108606504690476,-0.0034362175392190484,-0.0005210831905428572
1.7177498813244398e+18,0.003127133223485,0.00112484198752,0.0012050698046899998
1.7177498815244398e+18,0.01238644546825,0.0021878537140599995,0.00019290854691499999
1.7177498817244398e+18,0.011276224254889,0.00023585017774500013,-0.00047498928606499996
1.7177498819244398e+18,0.011202006531150001,-0.0021483376624649997,-0.0035509384354
1.7177498821244398e+18,0.014766872861149999,0.00024565815699999997,0.0008482463017384997
1.7177498823244398e+18,0.016030646813500003,-0.0025273837265035,0.0013420808186700001
1.7177498825244398e+18,0.004867581717905,-0.0013541852300675,0.0016794368914749998
1.7177498827244398e+18,0.006331561809714286,-0.0015057417716857144,0.0006241281571904761
1.7177498829244398e+18,0.00071457706226,0.0035340493426550003,0.0014817460206964998
1.7177498831244398e+18,-0.00450736577917,-0.00338758147553,-0.0018935482775160003
1.7177498833244398e+18,-0.012884831660650001,0.000762289250375,0.00021498285355000006
1.7177498835244398e+18,-0.00731945056495,-0.0018079924281000001,-0.0016815524431514
1.7177498837244398e+18,-0.004268765170158499,-0.0005520795122600001,0.0011873114213750001
1.7177498839244398e+18,-0.004354864583065001,-0.0008857886074449999,-0.0008573435654499999
1.7177498841244398e+18,-0.008804201836047618,-0.001693370707509524,0.0007207913856395239
1.7177498843244398e+18,-0.00367793277546,0.000669953832485,0.00019294173107150002
1.7177498845244398e+18,-0.0018256461014334996,0.000529012014185,0.0015074482711699999
1.7177498847244398e+18,-0.0020027311345,0.00059391012183,0.00018565793289
1.7177498849244398e+18,-0.0031435596320615,-0.001469548884875,-0.0001738386869399999
1.7177498851244398e+18,0.00752437140315,0.003447721968350001,-0.0008356851001749998
1.7177498853244398e+18,0.0136444933715,0.0025280402624075003,-0.00015025039906330003
1.7177498855244398e+18,0.012028899088714285,0.0017288667814761905,2.009121119095244e-05
1.7177498857244398e+18,0.010586169390444999,0.002224571083215,0.00096697096024
1.7177498859244398e+18,0.0158497594295,0.0010611015138750001,0.00024270002622800007
1.7177498861244398e+18,0.014483116613449998,-0.00158758753678,0.0013167758356045002
1.7177498863244398e+18,0.0005209067139250003,0.0005388883874699999,0.00024722545642399984
1.7177498865244398e+18,-0.0058916921728499995,0.0012696939987,0.0007579905796425001
1.7177498867244398e+18,-0.0031112512515000003,-0.00079263955124,-0.0006228979908745001
1.7177498869244398e+18,-0.00609204058995,-0.0044021280948935,-0.001044236682345
1.7177498871244398e+18,-0.01702673972785714,-0.011592440472409524,-0.012860967578376192
1.7177498873244398e+18,-0.01770321518395,-0.010171778454745,-0.0010655734456149995
1.7177498875244398e+18,-0.022848036949249997,-0.0087694882297345,0.0006463032920499999
1.7177498877244398e+18,-0.083159546366,-0.032660135486,-0.0023075448930299997
1.7177498879244398e+18,-0.015727088728494997,-0.01126344192365,-0.0034454783187919994
1.7177498881244398e+18,0.01908173281158,0.01153136804915,-0.004953369672515
1.7177498883244398e+18,0.008628547126539998,-0.0009212833364955,-0.006309078447662
1.7177498885244398e+18,0.016947789638333332,0.007771115019095238,-0.001079819863809524
1.7177498887244398e+18,-0.0002789733056944999,0.0001851908396599999,-0.0002999955031071
1.7177498889244398e+18,0.03489920267593499,0.005061216407350002,0.0030516248893
1.7177498891244398e+18,-0.0191755475002,-0.01111130834218,0.03414487517455
1.7177498893244398e+18,0.034788756352,0.01842724233795,-0.017041665805304997
1.7177498895244398e+18,0.0251794355921,0.02863657646815,0.005850159447015
1.7177498897244398e+18,0.006746055700935001,-0.001994320215295,0.007134429911950002
1.7177498899244398e+18,0.010640767258761905,0.0009846328089999994,-0.0013357539760952383
1.7177498901244398e+18,0.00532389080074,-0.0011470922619850003,0.00524141381005
1.7177498903244398e+18,0.014592350861709999,0.002919923153415,0.00066475244242
1.7177498905244398e+18,0.023422741517000002,0.0031297008276449994,0.0006600628724900001
1.7177498907244398e+18,0.027841114439000003,0.004717970302053,0.0009805328503582503
1.7177498909244398e+18,0.044492770918999995,0.002256027038815,0.011676898448106498
1.7177498911244398e+18,0.019490425155010004,0.00044032270120000007,-0.0005179139549710001
1.7177498913244398e+18,-0.00475074876999,-0.00037390058868150007,-0.002785264159165
1.7177498915244398e+18,-0.02573416745666666,0.002642894973118,-0.005903845387090477
1.7177498917244398e+18,-0.030604537669499998,-0.0024103307512155,-0.00096092263095
1.7177498919244398e+18,-0.0164394337675,-0.0009478521882624,-0.002195887349175
1.7177498921244398e+18,-0.009894483722950001,-0.00211884677407,-0.00043349313198449995
1.7177498923244398e+18,-0.0146135971418,-0.002140916301755,-0.0011639751087025
1.7177498925244398e+18,-0.00650388683129,-0.0005850445943699999,0.0012607664335449998
1.7177498927244398e+18,-0.00064778495576,0.0026168652810350003,0.00046735035724499997
1.7177498929244398e+18,-0.00021562731132047615,-0.0026149500073238095,-0.0009471609456780951
1.7177498931244398e+18,0.004962117783884999,0.000502201693655,-0.0003387199306465
1.7177498933244398e+18,0.014618496550000002,0.0018156736623400002,-0.0011719662055250002
1.7177498935244398e+18,0.017329679942,0.00363371017162,0.00258852879051
1.7177498937244398e+18,0.0155684664855,-0.000643358426095,-0.000243297277485
1.7177498939244398e+18,0.011098653462449998,-5.9007224644999766e-05,0.0011631995614416499
1.7177498941244398e+18,0.01389214066035,-0.00039557318665949995,0.0005560612888485001
1.7177498943244398e+18,0.006132109018604763,0.0004730192346190476,0.001809382007390476
1.7177498945244398e+18,-0.007902153680292501,-0.002066775190395,-5.553200022499999e-05
1.7177498947244398e+18,-0.007755929138399999,-0.0004107008804049999,1.7844675989499942e-05
1.7177498949244398e+18,-0.006431422219450001,-0.00103336386378,-0.0005830140550050003
1.7177498951244398e+18,-0.0058404848678,-0.0022070607286133496,-0.0010254625696230002
1.7177498953244398e+18,-0.010094777261900001,-0.0031304470613949995,0.000706246128512
1.7177498955244398e+18,-0.00403754086594,-0.0014756897813599998,-0.00015697908234499992
1.7177498957244398e+18,-0.0005767388327275,0.0009625264675475001,0.0009101673262276999
1.7177498959244398e+18,-0.001283411346790476,-0.0013493923360052382,-0.0006063608452142858
1.7177498961244398e+18,-0.002241850091414,-0.0011476894840399998,0.0007615197333485
1.7177498963244398e+18,0.010338522238299997,0.0028798678890749997,-0.0014428513240900003
1.7177498965244398e+18,0.0143901186065,0.00465258622998,0.0013950665598450001
1.7177498967244398e+18,0.015062485541999997,0.0018488186643699997,0.0005996498919935
1.7177498969244398e+18,0.01064325726985,0.0002513871527950001,0.000239616923453
1.7177498971244398e+18,0.016258608642500002,-0.000647949427435,0.00024972506225465007
1.7177498973244398e+18,0.021022749399523814,0.004857559887442857,0.002889363316776191
1.7177498975244398e+18,0.00749693338297,-0.0001896949483965,0.00011119993295000003
1.7177498977244398e+18,-0.00801725097735,-0.00041860537605,0.0006561624119910001
1.7177498979244398e+18,-0.00509229562004,-0.0021181655699555003,-0.00077912477433
1.7177498981244398e+18,-0.0035300132119899996,0.0003611068126050002,0.0006688594934699998
1.7177498983244398e+18,-0.0050954126053,-0.0024922539596950004,-0.0011872359958899998
1.7177498985244398e+18,-0.01094687578725,-0.003224691830065,0.0006213996152429999
1.7177498987244398e+18,-0.005357056790047619,-0.002535132524921429,-0.0010218099480714285
1.7177498989244398e+18,-0.0031907908444200003,0.00031266069274950005,0.00141750228359
1.7177498991244398e+18,-0.0053416927462,-0.0038680187426449997,-0.00010901583588199997
1.7177498993244398e+18,-0.006330297118509999,-0.0036018139216594997,-0.00037055410206425005
1.7177498995244398e+18,0.00665368183407,0.0030780422501699998,-0.0005247190595606
1.7177498997244398e+18,0.014106330508200001,0.0034655701719645,0.00019552056907600005
1.7177498999244398e+18,0.015334737162000001,0.00024584442146745,-0.00022124684778449997
1.7177499001244398e+18,0.010669387248,1.686607719500015e-05,0.0010305934992650002
1.7177499003244398e+18,0.014758587770000001,0.0004945572664978809,-0.0006702713601523811
1.7177499005244398e+18,0.015998098533500003,0.0029331633006350003,0.0019959405181499998
1.7177499007244398e+18,0.00773772101405,-0.0034267704468599995,-0.0005153184640160001
1.7177499009244398e+18,-0.004958013555295,0.0014131241186890004,0.0016503035439580003
1.7177499011244398e+18,-0.0036471465020650002,-0.003976472688617,-0.0009640928881569999
1.7177499013244398e+18,-0.003155098436480001,0.00075248960635,0.0010174809081450002
1.7177499015244398e+18,-0.0038758533191900002,-0.001995310769508,-0.0017430331499700001
1.7177499017244398e+18,-0.007430755744007619,-0.0025605635407209525,0.0003698728534809524
1.7177499019244398e+18,-0.0029045721108149998,-0.006688052008368001,0.00428561455346
1.7177499021244398e+18,-0.1802159151005,-0.03951397763042,-0.0014417927713399994
1.7177499023244398e+18,-0.016137508163749998,0.009051438549010003,-0.0216759697776
1.7177499025244398e+18,0.022794044202999998,0.054002405331,-0.00819954938485
1.7177499027244398e+18,0.043453572691,0.01781679883146,-0.0006414168982499999
1.7177499029244398e+18,0.03234924394599999,-0.0002431173346215002,-0.00548205495577
1.7177499031244398e+18,0.06736831207380953,-0.020548400869,-0.006802482092833333
1.7177499033244398e+18,0.06030273195350001,0.00204118186414,0.003362770617335
1.7177499035244398e+18,0.046186930686500004,-0.00424064173198,0.000736008235303
1.7177499037244398e+18,0.04046451170049999,0.00144758909015,-0.0015581761603455
1.7177499039244398e+18,0.02234309278475,-0.004425415827415001,0.011639760887750001
1.7177499041244398e+18,0.015483768191500002,0.002134064690075,-0.005883821122899999
1.7177499043244398e+18,0.012545676611449999,-0.003720967844069999,0.005634638830045
1.7177499045244398e+18,0.005744200998809524,-0.004707382670162382,-0.013691898990428572
1.7177499047244398e+18,-0.0030299160277364,0.0010275866489900004,-0.00038573095834499996
1.7177499049244398e+18,-0.0071951590248,-0.0024676877307499997,-0.0074094849644100015
1.7177499051244398e+18,-0.0004100112535749999,0.005929985665599999,-0.00936276637365
1.7177499053244398e+18,-0.009338178241600001,-0.0021654811804350006,-0.0057798159772
1.7177499055244398e+18,-0.010166106326600002,0.0032374537898899997,0.0005638153990500001
1.7177499057244398e+18,-0.00794355035765,-0.00134765966799,-0.00086618945355
1.7177499059244398e+18,-0.00243605610451,0.0017886024317549994,0.0007813414150989999
1.7177499061244398e+18,-0.0032109696905238093,-0.0030598206046904765,-0.004571340429228572
1.7177499063244398e+18,-0.0081386851841,-0.00682060154482,-0.0018644880503700001
1.7177499065244398e+18,-0.0028234839905060005,0.0009603087208179999,0.001262016827305
1.7177499067244398e+18,2.796220354999915e-06,-0.001694777142275,-0.0011167508782795
1.7177499069244398e+18,0.0009715364896724997,0.001612623454995,-0.002838997601125
1.7177499071244398e+18,-0.0010097602323040002,-0.008669193903065,0.0036072914372160003
1.7177499073244398e+18,0.012805068516200002,-0.0017156536224399999,-0.002422592882045
1.7177499075244398e+18,-0.14741238981820953,-0.013135824474428574,0.027282106379523805
1.7177499077244398e+18,-0.033874477493,-0.036178312590200004,-0.03191826771999999
1.7177499079244398e+18,-0.041837870701499996,-0.06429055966400002,0.014844616292719997
1.7177499081244398e+18,0.01291293061805,-0.02756838770540001,-0.014496675924900004
1.7177499083244398e+18,-0.00014213143135000003,0.038854879443150005,-0.021369820018199998
1.7177499085244398e+18,-0.027861229796000003,0.03520229542600001,-0.00347329326905
1.7177499087244398e+18,-0.030237478948499995,0.058656447566799996,0.029966969438349998
1.7177499089244398e+18,-0.006484445190097142,0.0544535005004762,-0.033379808743952376
1.7177499091244398e+18,0.0032193662540650004,0.0027308407932500013,0.012540425674559999
1.7177499093244398e+18,0.0085056816695,-0.04570207567900001,0.01628074055715
1.7177499095244398e+18,-0.005911561602399998,0.059814040014094995,0.045802966785650004
1.7177499097244398e+18,0.018351886142100003,-0.046780378558450006,-0.030491177958649994
1.7177499099244398e+18,0.020194578310000003,-0.014272797445330002,0.00829802053035
1.7177499101244398e+18,0.025485489936300003,-0.046218073368000004,0.0184669057844
1.7177499103244398e+18,-0.014769807777799997,0.01193178285572,0.021750590275255
1.7177499105244398e+18,-0.034936411218095244,0.007422565971095236,-0.027584238022761904
1.7177499107244398e+18,-0.004119127249335,-0.023453811439450002,0.0073535313356
1.7177499109244398e+18,-0.01210733379735,0.01295704155885,0.00448114663563
1.7177499111244398e+18,-0.01908032903565,-0.019147467054099997,-0.0016764843661399998
1.7177499113244398e+18,-0.00170746231485,-0.012565056002149999,-0.00466235293364
1.7177499115244398e+18,0.00634486234081,0.005276822310620001,-0.0018556667842599996
1.7177499117244398e+18,0.0036981455809550006,0.017212806443649996,0.011475856159805
1.7177499119244398e+18,0.005970217420476191,-0.006461201790295238,0.0007848949172571427
1.7177499121244398e+18,0.0331716208245,-0.022569116332400004,-0.0018587994031999996
1.7177499123244398e+18,0.0007465623967060003,-0.04508109021775,-0.007566155923569999
1.7177499125244398e+18,-0.003112330561200001,-0.037102902495,-0.00997381595745
1.7177499127244398e+18,-0.002461363468265,0.0029945310096349998,-0.013252154865580002
1.7177499129244398e+18,-0.0017188122378550004,-0.004583861760379999,-0.004490788840120001
1.7177499131244398e+18,0.00528652116734,-0.0109061364197,0.004503543523835
1.7177499133244398e+18,9.311265533333321e-05,-0.003433534027552381,-0.00039941604649523815
1.7177499135244398e+18,0.0073369305398450005,-0.025600789115,-0.015505189680950002
1.7177499137244398e+18,-0.010522346198700001,-0.010784380580699998,-0.00014532785866999998
1.7177499139244398e+18,-0.007819110784,-0.005357975151918499,0.00097910448704
1.7177499141244398e+18,0.0013115750508500001,0.008650907710414999,0.014058859646594998
1.7177499143244398e+18,-0.002250196575115,0.005921417905764999,0.0031087456215655005
1.7177499145244398e+18,-0.00448574565806,-0.00019619753661500073,-0.0041605330536400005
1.7177499147244398e+18,-0.00785236881388,0.011097032390900003,0.0031017975413000004
1.7177499149244398e+18,0.0031804016492661905,0.0017758792912523807,0.004865263693285715
1.7177499151244398e+18,0.0002811999057550001,0.005690442071399999,-0.0040547596575499995
1.7177499153244398e+18,0.009092863521365499,0.010693563661330998,0.0066181466450000006
1.7177499155244398e+18,0.01376610688155,-0.00681694933441,0.008088079246679999
1.7177499157244398e+18,0.0090062342292295,-0.012982712674739997,0.014383696648300002
1.7177499159244398e+18,0.0227525592315,0.02959445197935,-0.00204288847755
1.7177499161244398e+18,0.00919287695986645,0.017875834694419997,0.007834883196884999
1.7177499163244398e+18,-0.001992652958109524,0.03885814582904762,0.005956699201014286
1.7177499165244398e+18,0.005890291289500001,0.01570383564115,-0.002797645923675
1.7177499167244398e+18,0.012332545692590001,0.0448710178612,-0.011828363337850001
1.7177499169244398e+18,0.09487385237405001,-0.022945688629399996,-0.028787544226364998
1.7177499171244398e+18,0.75332459513,0.005439232477899999,0.03886958333900001
1.7177499173244398e+18,0.79751947818,-0.32513564638400005,0.021113702557700002
1.7177499175244398e+18,0.530146092185,-0.33838697075999996,-0.04821036271819999
1.7177499177244398e+18,0.5586818797333334,-0.21921705082095239,-0.1240277528057143
1.7177499179244398e+18,0.12898285397999998,0.49397897719999995,0.028798873454249994
1.7177499181244398e+18,-0.007270975801070001,0.03202502257035001,0.05771481972199999
1.7177499183244398e+18,-0.18981115192224998,0.10270571056899999,-0.008297942590004997
1.7177499185244398e+18,-0.64288339018,-0.145676892256,-0.011127417301499996
1.7177499187244398e+18,-0.2919948418635,-0.19466825157674997,0.011451177126949997
1.7177499189244398e+18,-0.07126778862449999,0.0685844255568,0.020071403484199998
1.7177499191244398e+18,0.09145439537300001,0.0434429258125,-0.011347183447015
1.7177499193244398e+18,0.23719427743342855,0.12191011801142858,-0.10334377390571428
1.7177499195244398e+18,0.716861730815,0.0978600949995,0.0528880349364
1.7177499197244398e+18,0.278846188814,0.17920765467500002,0.037148825743
1.7177499199244398e+18,-0.1976080094885,0.18894270137499997,0.15196267887665
1.7177499201244398e+18,-0.27607356265989996,0.10765094216275,0.0186376655942
1.7177499203244398e+18,-0.7645433217250001,-0.0041032321774999965,-0.06961975150205
1.7177499205244398e+18,-0.734013774995,-0.09307026930696001,-0.093115814592
1.7177499207244398e+18,-0.21228655747476194,0.23068429210714286,-0.08579855062690475
1.7177499209244398e+18,0.2646381979775,-0.021148023753499997,0.01943277064595
1.7177499211244398e+18,0.59213098438,-0.11761754523750001,0.0570199348485
1.7177499213244398e+18,0.45131181031,-0.08364974516499998,0.015747711353935
1.7177499215244398e+18,0.558062775435,0.00703461426251,0.0275413778261
1.7177499217244398e+18,0.16540507097850002,-0.08577404078449999,0.0309427063439
1.7177499219244398e+18,-0.16560178641749998,-0.0681588225545,0.0136218809056
1.7177499221244398e+18,-0.7678763298619048,-0.28942182358809526,0.05176597798190476
1.7177499223244398e+18,-0.5967739507400001,0.17555908407034998,-0.0338869951087635
1.7177499225244398e+18,-0.5571453765,-0.26362001187450007,-0.04577093846296
1.7177499227244398e+18,0.016862512661,-0.12451331392000001,-0.04535452133285
1.7177499229244398e+18,0.23694842252849996,-0.22658085785,-0.178461996425
1.7177499231244398e+18,0.3583063975,-0.03973722902823244,-0.181222122352
1.7177499233244398e+18,0.6805257856800001,0.034000134284000005,-0.0364730466641
1.7177499235244398e+18,0.5321569875,0.0642971915068,0.0029500408534499966
1.7177499237244398e+18,-0.032645792855238095,0.08793063648333332,-0.004852565404285712
1.7177499239244398e+18,-0.38454515561499997,0.1606437447495,0.029891571064899997
1.7177499241244398e+18,-0.55813530832,0.11725327689049996,0.029288542468250002
1.7177499243244398e+18,-0.28631717507099996,-0.0349295063527,-0.01848701938178
1.7177499245244398e+18,-0.23988833202999998,0.008413152393500004,-0.0037749365200000023
1.7177499247244398e+18,0.32978549618,0.092328282262,0.065032250732615
1.7177499249244398e+18,0.3438686508725,0.135595815818,0.04301229714455
1.7177499251244398e+18,0.35996932643,0.13001433267347623,0.024066355910761904
1.7177499253244398e+18,0.6695404022900001,0.25941593475150004,0.0007278285691000013
1.7177499255244398e+18,0.41041693580349997,0.2783547050846,0.07871156251500001
1.7177499257244398e+18,-0.0727347360975,-0.11931722171685002,-0.014495001547000003
1.7177499259244398e+18,-0.31075515882135,-0.27003023195431997,0.0681935260065
1.7177499261244398e+18,-0.42142596021,-0.23392587825349992,-0.02337543727
1.7177499263244398e+18,-0.12311354224990001,0.27004470051929996,-0.083103262443
1.7177499265244398e+18,-0.9538628912095236,0.05811277962952379,-0.033000141958999994
1.7177499267244398e+18,-0.803866779805,-0.16762125791,-0.07778814043599999
1.7177499269244398e+18,-0.33476045002849997,-0.1075239044575,0.018874641961299995
1.7177499271244398e+18,0.07354413326749999,0.02241453123379,-0.021302838845375004
1.7177499273244398e+18,0.08739048354250001,0.15136709977249999,0.01210826332775
1.7177499275244398e+18,-0.00042295926314000104,-0.021164488292022356,0.005639984365795001
1.7177499277244398e+18,0.03481889208615,-0.08196426620700001,0.043862941537
1.7177499279244398e+18,6.381545268999927e-05,0.05249442957039999,-0.006758057930485001
1.7177499281244398e+18,0.001247152352857143,0.0824713316704762,0.020283273819761905
1.7177499283244398e+18,0.04367338837899999,0.0018930831215500001,-0.017175897467200003
1.7177499285244398e+18,0.040270353388500005,-0.0030167417260499986,-0.01131209477325
1.7177499287244398e+18,0.04213109957050001,0.0016293079946500001,0.0054390697389250005
1.7177499289244398e+18,0.0020337934200594997,-0.013867164252300002,0.0023263661886
1.7177499291244398e+18,0.0009333283349199998,-0.003546076232915,0.012853408522985
1.7177499293244398e+18,-0.0082802395744,-0.0013320034254985002,0.0010012195910875
1.7177499295244398e+18,-0.0012821730537571426,-0.000680566576857143,0.0021432044339971426
1.7177499297244398e+18,0.014758935733800002,0.00307169129371,-0.0005299028358625
1.7177499299244398e+18,0.016755737259505,0.0003269812324719998,-0.0002812747959400001
1.7177499301244398e+18,0.023970604594,1.6047910355000087e-05,0.0020300836651525
1.7177499303244398e+18,0.025353274215999998,0.0007042305427349998,0.0005661295028284998
1.7177499305244398e+18,0.023189369868,-0.00233410117224,0.00016738249682999998
1.7177499307244398e+18,0.012934589467050001,0.0026614385366399997,0.0020802311133350003
1.7177499309244398e+18,0.008098993993190477,0.0015074519686047619,-5.811981727142868e-05
1.7177499311244398e+18,-0.003831928048694999,0.000678410101669,-0.0013042584177725002
1.7177499313244398e+18,-0.01154469737095,0.0029224468395541003,-5.484921868999998e-05
1.7177499315244398e+18,-0.006123686651549999,0.0005303254933100002,0.000255872268475
1.7177499317244398e+18,-0.004028030700305,0.00010958771452000003,-0.0004953223454554999
1.7177499319244398e+18,-0.0077710099282,-0.0011334242997850003,0.00023170852791500003
1.7177499321244398e+18,-0.009959574521264999,-0.0026898949638950002,0.00022129757569300013
1.7177499323244398e+18,-0.002801926923013,0.0005524899578785,0.0006435097719015
1.7177499325244398e+18,-0.0007633699902485715,0.0003906678120285715,-0.0001595399919047619
1.7177499327244398e+18,-0.0048145360198804995,-0.002977317827985,-0.000865974248084
1.7177499329244398e+18,0.007485619478284999,0.001658193411963,-0.00044436879682
1.7177499331244398e+18,0.0165288624825,0.00305239193837,0.0003598819952145
1.7177499333244398e+18,0.01615267181785,0.00114079937933,7.708303167749996e-05
1.7177499335244398e+18,0.01150877490306,-0.0009949254806599997,0.0006926335103599999
1.7177499337244398e+18,0.018046521024000003,2.944387949999766e-06,-0.0007991871970860001
1.7177499339244398e+18,0.018171257029047615,-0.0016195166168337621,0.0007150267594238093
1.7177499341244398e+18,0.004025232186755,-0.00228682103346,-0.0013474042876245
1.7177499343244398e+18,0.0004546755867000002,0.0006452240107750002,0.0009648605132399999
1.7177499345244398e+18,-0.00399895025185,0.0003311260137899999,0.000927372963571
1.7177499347244398e+18,-0.007392435497699999,-0.0018660778529539994,-0.00019252308983500012
1.7177499349244398e+18,-0.01138709119995,-0.0013694762135699997,0.000786518142539
1.7177499351244398e+18,-0.0033898248686449993,-0.0024654640001726203,-0.00102260492283
1.7177499353244398e+18,-0.0022207914763428573,0.001227411108882857,0.0013668902351790476
1.7177499355244398e+18,-0.0077974786861,-0.0026379042653799996,0.000319174805215
1.7177499357244398e+18,-0.0008911306678624,8.0643827105e-05,0.0013324279220929998
1.7177499359244398e+18,0.00217290051517,0.0008883004426199999,0.0015010592061380002
1.7177499361244398e+18,0.005383507627784999,-0.000352355709805,0.00011843193791
1.7177499363244398e+18,0.00597982158675,-0.0002014584954939999,-0.00038171975177999994
1.7177499365244398e+18,0.013312129721455002,-0.0006439140997879999,-0.0004545475997900001
1.7177499367244398e+18,0.01707425531761905,0.0016899984107952386,0.0015102363069428575
1.7177499369244398e+18,0.017133439192999998,-0.001346658309945,-0.0006300882377784999
1.7177499371244398e+18,0.0090621850978,0.00010025380174450002,-0.00039200618059649997
1.7177499373244398e+18,0.01076007583135,-0.0007912763278149999,0.00019340672877149996
1.7177499375244398e+18,0.005801471846680001,0.0018660807516949999,0.0007779943524199998
1.7177499377244398e+18,-0.0038381592602599996,0.00038847848769455,-0.00049198722702
1.7177499379244398e+18,-0.014439441870550001,-0.0001368920668199999,0.0002496860805449999
1.7177499381244398e+18,-0.0050105139031499995,-0.002491460577485,-0.00032277806897
1.7177499383244398e+18,-0.0032548029419047614,0.0017321447487947622,0.00042714215151380957
1.7177499385244398e+18,-0.0055622975808,-0.00015883106971800007,0.00039039471893150007
1.7177499387244398e+18,-0.00891856504635,-0.00189058562975,0.000924529292466
1.7177499389244398e+18,-0.0012067785311310002,-0.00106112004722,-0.00023827526019349994
1.7177499391244398e+18,0.002766219421745,0.0019554959261719996,0.001024822471655
1.7177499393244398e+18,0.0007713875210365,-0.0016928292113,-0.000904211122535
1.7177499395244398e+18,0.009765278711125,-0.0009075252105949999,5.542953728699993e-05
1.7177499397244398e+18,0.017892838012380955,0.0031167211210809524,0.00024045331942380962
1.7177499399244398e+18,0.021630947105999998,9.712309110500013e-05,0.0008889286895105
1.7177499401244398e+18,0.0141939846221,-0.0013815102281984999,0.0023238147608890007
1.7177499403244398e+18,0.018101793620500004,-0.0010779219678104998,0.0006877897656300002
1.7177499405244398e+18,0.019081996846500002,0.002285069285405,0.0013804211746500001
1.7177499407244398e+18,0.0099273059164,-0.0027653318712265004,8.342437796499996e-05
1.7177499409244398e+18,-0.007311229204255,0.003940679133119999,0.00148829316012
1.7177499411244398e+18,-0.007536111488142857,-0.0022040114051190473,-0.0010677996380314286
1.7177499413244398e+18,-0.0068789717859,0.0026254571857149997,0.0012013486935720003
1.7177499415244398e+18,-0.0119327575197,-0.0017873273580750002,-0.0019820904708885796
1.7177499417244398e+18,-0.0127681768735,-0.0018746452405565,0.001282776001625
1.7177499419244398e+18,-0.004581365443244999,-0.0030583949177149993,-0.00046566998354280004
1.7177499421244398e+18,-0.00199543029886,-0.00160612415057,0.0011227887821649999
1.7177499423244398e+18,-0.006112037180275,-0.0027299958280300003,-0.0010372271528435002
1.7177499425244398e+18,0.0013206612843400004,0.00139694248782,-0.00027394249344
1.7177499427244398e+18,0.0017411946540857146,0.0008606416329128572,0.00033550552048571426
1.7177499429244398e+18,0.00849384076425,0.0004255450097549999,-0.0014482586003949998
1.7177499431244398e+18,0.009779416444065001,0.0016806573258320002,0.0006331634474399999
1.7177499433244398e+18,0.018624323374000003,0.0023352429154999996,-2.5943841355999914e-05
1.7177499435244398e+18,0.022186814808,0.003974223183425,0.0021463752782350004
1.7177499437244398e+18,0.020801776834000002,-0.000579431001,-0.0009543825871249998
1.7177499439244398e+18,0.013266503496215002,-0.0003298945143155001,0.0008096851175349998
1.7177499441244398e+18,0.009222739376333335,-0.0019268744979999998,0.00015881877125095234
1.7177499443244398e+18,0.00043453251130000007,0.00262171481728,0.000669014977715
1.7177499445244398e+18,-0.00821822991135,-0.0023585854214799996,-0.0025674988632859996
1.7177499447244398e+18,-0.01285680981765,-0.0008445766289115,0.000834525155435
1.7177499449244398e+18,-0.008048431388899999,-0.005759218195549999,-0.0021399854334300003
1.7177499451244398e+18,-0.00767214228415,0.0024690093007349997,0.0020157102377099997
1.7177499453244398e+18,-0.0093912836751,-0.002507260430085,-0.0017007794230755001
1.7177499455244398e+18,-0.0031718398121999996,-0.001396561440642857,0.00035470667551238094
1.7177499457244398e+18,0.023667992930999998,0.007596049749235001,-0.0012196038381414999
1.7177499459244398e+18,0.01960776031585,0.002674649318335,0.007465189311509998
1.7177499461244398e+18,0.0040882747678950004,-0.00198505426527,-0.00877651095995
1.7177499463244398e+18,0.00983105680255,-0.0003679375163350001,0.00282218795043
1.7177499465244398e+18,0.015613982778999998,0.0020297073292830006,0.0006461085286145
1.7177499467244398e+18,0.016283376933499998,-0.0018735308782904998,0.0007306147250490001
1.7177499469244398e+18,0.008619770535805,-0.0008316630613749999,0.000599990278715
1.7177499471244398e+18,0.008821581312952381,-0.002909890187704763,0.00035182946549666667
1.7177499473244398e+18,0.0004371227521419999,0.0018047967459447,0.0008362083113450001
1.7177499475244398e+18,-0.010290231916750001,-0.0023132455069899997,-0.0017084496096700004
1.7177499477244398e+18,-0.01227734498655,-0.0018244320875689998,-7.494742172900003e-05
1.7177499479244398e+18,-0.007825934630749999,-0.002570589002925,-0.0012904867936649998
1.7177499481244398e+18,-0.0061518159229,-0.000801309698695,-0.0009675787644300001
1.7177499483244398e+18,-0.009602845657300001,-0.0010624740272765,-0.00045608768135
1.7177499485244398e+18,-0.0035509659709095235,-0.00031288658895000006,0.0005432352910985716
1.7177499487244398e+18,0.0006533357606045001,0.0006574057624649999,0.0015956456423750001
1.7177499489244398e+18,-0.00013755865510699995,-0.0020982340210855,0.0005573577654705001
1.7177499491244398e+18,-0.0021197592726999994,-0.003521928051681499,-0.00016068606647999997
1.7177499493244398e+18,0.012430677470499998,0.002543469087646,-0.00014670711250999995
1.7177499495244398e+18,0.016468967543500003,0.004857690283052499,0.0012629545643043
1.7177499497244398e+18,0.014722129190800001,0.001555432681865,0.0002875224396175
1.7177499499244398e+18,0.007902870608995239,-0.0008054746070809525,0.0027159592358761905
1.7177499501244398e+18,0.012452668137849999,-0.0036710902233999996,0.0006907075293809999
1.7177499503244398e+18,0.0051581053877155,-0.011842205095615,-0.00022008646625350004
1.7177499505244398e+18,-0.0042024476918350005,0.0037735883379149994,0.00010399710149500011
1.7177499507244398e+18,-0.005015507549950001,0.00025442863111850014,-0.0008132549119499999
1.7177499509244398e+18,-0.0043001896702,0.002722340845465,0.00012409865155
1.7177499511244398e+18,-0.0027868916746245005,-1.937663190450002e-05,-0.0021597664453525006
1.7177499513244398e+18,-0.00786286785715,-0.00111587949796,0.000469720369435
1.7177499515244398e+18,-0.0011933019350338096,-0.0017849435430866663,-0.0005676835287857143
1.7177499517244398e+18,0.00274666929041,0.0005069272475950001,-0.0007510826922749999
1.7177499519244398e+18,0.0011332520284250004,-0.0015695553621535002,-0.002327493915845
1.7177499521244398e+18,0.003855433758,-0.000995048682805,5.615137633649998e-05
1.7177499523244398e+18,0.014166488031499998,0.00414768056938,0.0002533389954675
1.7177499525244398e+18,0.018699435517000002,0.0026276211138094993,0.0016454724652924997
1.7177499527244398e+18,0.015446319010450002,0.0019702585763600004,0.0007633050437863
1.7177499529244398e+18,0.01300931504657143,0.000511607953517619,0.0011773297918666668
1.7177499531244398e+18,0.018249306782499995,0.001147487224385,-0.00011089941254999969
1.7177499533244398e+18,0.010127512039349999,-0.0029942640219249995,-1.6191002209000006e-05
1.7177499535244398e+18,-0.00574177105435,0.001182289864056,-0.00020128588661835013
1.7177499537244398e+18,-0.0061031068209499995,-0.0024854870745164995,-0.00040620354122700007
1.7177499539244398e+18,-0.005302845966199999,-0.0011809881544250001,3.259081861500006e-05
1.7177499541244398e+18,-0.0042942914355,-0.001803254312855,-0.00286892940051
1.7177499543244398e+18,-0.008437813059333332,-0.004342604129238095,-0.0018445285690939053
1.7177499545244398e+18,-0.0024624311014600003,-0.003105196880595,0.0005018315161594999
1.7177499547244398e+18,-0.0005132166028849999,-0.00013377387074500006,0.001197024749114
1.7177499549244398e+18,-0.0007621869503335,-0.0022373237531050005,-1.8644262985800054e-05
1.7177499551244398e+18,8.187172916999976e-05,9.434440867994988e-05,-0.0006550345918450001
1.7177499553244398e+18,0.01204928264545,0.003394361515515,-6.356518708499998e-05
1.7177499555244398e+18,0.016107875015499998,0.0050429644412875,0.00246490951391
1.7177499557244398e+18,0.020217366982500002,0.0020848913234844998,0.0035147452842849993
1.7177499559244398e+18,0.013261805310238097,0.000857151911795238,0.0004388371903666667
1.7177499561244398e+18,0.016284171397999998,-0.0010116919991544997,-0.0004313023761410001
1.7177499563244398e+18,0.0146472324155,0.001471684931295,0.0014290241874200002
1.7177499565244398e+18,0.005477724526999999,-0.0016145243192915,0.00038685040191949996
1.7177499567244398e+18,-0.00706593062464,0.0012337394058675,0.0005969539051445
1.7177499569244398e+18,-0.00411694318761,-0.00315693733279,-0.0004526711302600001
1.7177499571244398e+18,-0.004942435317099999,-0.0007769775809649999,0.000484949332885
1.7177499573244398e+18,-0.0072902935183333335,-0.0016269791052071427,-0.0018122844242904764
1.7177499575244398e+18,-0.01011232139995,-0.0028005252823999995,-0.0011193322425843998
1.7177499577244398e+18,-0.00459268271235,-0.00418056242622,-0.000378441938655
1.7177499579244398e+18,-0.002190648863235,-0.00441420566079,0.00054214369745
1.7177499581244398e+18,-0.0014895650791305,-0.0049145825205500005,0.00011998513949
1.7177499583244398e+18,-0.003005941206555001,-0.00036917496455500016,0.000932208250745
1.7177499585244398e+18,0.010210693976899998,0.007192399410899999,-0.0006427406566650001
1.7177499587244398e+18,0.016683441763333334,0.004607783419809523,0.00020568329468904762
1.7177499589244398e+18,0.01567084831245,0.002161400229635,0.000284492509666
1.7177499591244398e+18,0.015443714010249998,0.001467727508861,0.0014245201019600002
1.7177499593244398e+18,0.019780416972,0.0023192540858249996,0.0005131963406730001
1.7177499595244398e+18,0.0177280412525,-0.0013411967374355,0.0010431923321800002
1.7177499597244398e+18,0.0027167854365050003,-0.0008047379205050002,0.00021784589623500004
1.7177499599244398e+18,-0.0031632525730110003,0.0005878481318149995,0.00013980664079000013
1.7177499601244398e+18,-0.004025854170355,-0.0004912506090600001,0.00039313053724149993
1.7177499603244398e+18,-0.005373260826761906,-0.003055361498765238,-0.0013094692590142859
1.7177499605244398e+18,-0.0098404741503,-0.0022175049758785003,0.000719181465685
1.7177499607244398e+18,-0.0028891245601100003,-0.005755024764275,-0.0011093038599810001
1.7177499609244398e+18,-0.00138517737498,-0.0017637707874100003,0.00016423093628500002
1.7177499611244398e+18,-0.002942737680885,-0.00032530431632000003,0.00023322000057800002
1.7177499613244398e+18,-0.00679180002775,-0.0036144270212649992,2.9572553543000026e-05
1.7177499615244398e+18,0.00015750523895999993,0.000269367487615,-0.0002373025810635
1.7177499617244398e+18,0.007688344245133334,0.0051831986665380955,0.0005990503899333333
1.7177499619244398e+18,0.0133005224165,0.003720080864189801,0.000508279015733
1.7177499621244398e+18,0.01156059246345,0.002647182776085,-0.0002358282450434999
1.7177499623244398e+18,0.019264095929,0.0026164699929225,-0.0007542422506949999
1.7177499625244398e+18,0.019928940013000003,0.0018217913457549996,0.0010365106165500001
1.7177499627244398e+18,0.013175889524110002,-0.001208098896335,-0.00014141394051599994
1.7177499629244398e+18,0.0036431422223999997,-0.00014124653537999986,0.001658634515505
1.7177499631244398e+18,0.0004657542533190476,-0.0004398366768904764,-0.00016267122050566662
1.7177499633244398e+18,-0.0006271027145,-0.00229742638773,0.00031958798643000005
1.7177499635244398e+18,-0.008459866186295,-0.0030048640210850004,0.000461005046981
1.7177499637244398e+18,-0.0053841253742,-0.003931908879795,0.00029295570568999994
1.7177499639244398e+18,-0.0027991088224149996,-0.0006547242519700002,-0.001267972576882
1.7177499641244398e+18,-0.0019989978114896,-0.002238770667405,-0.00020991147029800002
1.7177499643244398e+18,-0.006718663673850001,-0.0044250515872849994,-0.00054296376763315
1.7177499645244398e+18,-0.0023988204077,-0.0009216218604755002,8.838241334249998e-05
1.7177499647244398e+18,0.008339626105042857,0.005264825132089523,-0.00027729589706238097
1.7177499649244398e+18,0.015902508842,-0.0019276857143399999,-0.0012719796446259998
1.7177499651244398e+18,0.011510878882999998,0.0019291830483299996,0.00028030296666000005
1.7177499653244398e+18,0.015052366676,0.00336260587207,0.000750655453835
1.7177499655244398e+18,0.017676377156,0.0022121892776850003,0.0007401517243585
1.7177499657244398e+18,0.013844915433050003,-0.001189397310373,-0.00124082287074
1.7177499659244398e+18,0.005714839161325,-0.0014585704775549998,0.0012176256510800002
1.7177499661244398e+18,-0.00014569684084571422,-0.0027340410077333335,0.000258825043007619
1.7177499663244398e+18,-0.0010067636961545,0.0008474852657700002,0.0009096957975815
1.7177499665244398e+18,-0.0037599755917300005,-0.0025657160673350004,-0.0016931742313949997
1.7177499667244398e+18,-0.014332015371049996,-0.003276154666702,0.0013400256342800004
1.7177499669244398e+18,-0.004636684584121,-0.004780511045875001,0.00045587305798050004
1.7177499671244398e+18,-0.0010770180670075,-0.001081525872033,0.0007345432998174999
1.7177499673244398e+18,0.00018994120170600002,-0.0024296940887550003,0.0003913634747964999
1.7177499675244398e+18,-0.003415759364471095,-0.004862682860835238,0.0003239099446523809
1.7177499677244398e+18,0.009498824842854997,0.007750237896499999,-0.003336821228679499
1.7177499679244398e+18,0.017209462542000002,0.005535384046825001,0.00037077909220500005
1.7177499681244398e+18,0.017141235897999995,0.0034637199482450004,0.0008756484835999998
1.7177499683244398e+18,0.01078391519207,0.0018093427061449997,0.000790432520455
1.7177499685244398e+18,0.015156414125499998,0.0007940759999049999,-0.0003863939782770001
1.7177499687244398e+18,0.014796740328050001,0.00074200819951,0.00224276860243
1.7177499689244398e+18,0.004936961712695001,-0.0013388821388800002,0.00012508640068754998
1.7177499691244398e+18,-0.00402207918176238,0.00011654412151904781,0.001023146357133381
1.7177499693244398e+18,-0.00204757928742,-0.0014115894794989997,-0.0014178332814700002
1.7177499695244398e+18,-0.003961531154249999,-0.00379086346356,-0.0008395924116184998
1.7177499697244398e+18,-0.008798936439899999,-0.00301570636209,-0.00038439525521150004
1.7177499699244398e+18,-0.0033201379934454994,-0.003914128069245,-0.00111881069604
1.7177499701244398e+18,-0.0010761903482499999,-0.0013742879031814997,0.0009052518522750001
1.7177499703244398e+18,-0.0014930861186750002,-0.0025131148751249997,-0.000357943848945
1.7177499705244398e+18,-0.0019603526951142863,-4.071419655000021e-05,-0.0002960524011571428
1.7177499707244398e+18,0.0123343990181,0.0073051324578,-0.001441288768475
1.7177499709244398e+18,0.014230122952399995,0.0028705111355350004,0.0007907357240689999
1.7177499711244398e+18,-0.088648419309595,0.00820553116495,-0.004823152493690001
1.7177499713244398e+18,0.012614346423500001,0.002408508863245,-0.0003308510408705001
1.7177499715244398e+18,-0.0013152985711249996,-0.0053462800113365,0.0033760642516840003
1.7177499717244398e+18,0.023010182008,0.01744704775065,0.0057058403618
1.7177499719244398e+18,0.01811182671952381,-0.004770700210300001,-0.0021353223076761903
1.7177499721244398e+18,0.0025930191738700002,0.0033773422827250003,0.0009427981683449996
1.7177499723244398e+18,-0.00169313185624,0.01306039805,0.0066322548553
1.7177499725244398e+18,-0.004080471547920001,0.023636438977849998,0.0034571028781300002
1.7177499727244398e+18,0.010857488785025002,0.007900855539370002,0.004499367403
1.7177499729244398e+18,-0.00173731471909,-0.006750760809300001,0.00148627808108
1.7177499731244398e+18,-0.0055403361912300005,0.0005209512542499999,0.001022830873205
1.7177499733244398e+18,-0.0017351225591,-0.00036730784874999985,0.00093902441444
1.7177499735244398e+18,-0.07211443218419047,-0.024232877773571426,-0.01021199994847619
1.7177499737244398e+18,-0.0529802119365,-0.040222058212499995,-0.01427377484515
1.7177499739244398e+18,-0.01067318740550145,-0.07757246419800001,-0.040756376832499996
1.7177499741244398e+18,-0.0253845886914,-0.0150187314606,-0.023945731133954998
1.7177499743244398e+18,0.011053879151275,0.0189736906448,0.004865696950715
1.7177499745244398e+18,0.0096310093982,0.018316112027800004,-0.01095991812209
1.7177499747244398e+18,0.008837490400849999,-0.041579516977000006,-0.0025837085094150003
1.7177499749244398e+18,-0.029269401870952373,0.015735549076014287,0.013451135128809525
1.7177499751244398e+18,-0.007771954848659999,-0.00412041050268,0.007872469304385
1.7177499753244398e+18,-0.016834849083874,-0.036987547227145,-0.012712107574615
1.7177499755244398e+18,-0.0277792748983,-0.0090691671474,0.0005138115382499998
1.7177499757244398e+18,0.0031260645953299997,0.0053699191889295,0.0014102895166249998
1.7177499759244398e+18,-0.00172790157955,0.020987152447750006,7.772829752499908e-05
1.7177499761244398e+18,0.0059602933355964996,0.00942227189692,-0.0077672137474500014
1.7177499763244398e+18,0.012541657996000002,0.02100582374285714,0.012375399393138095
1.7177499765244398e+18,0.00988333069285,-0.00260849176025,0.0024485931617950004
1.7177499767244398e+18,0.006281745456765001,-0.03209436573,-0.006607439252029999
1.7177499769244398e+18,0.0039959470742,-0.022025639389514996,0.004327453299749999
1.7177499771244398e+18,0.010686684742260002,0.02832388144445,0.014642952336100001
1.7177499773244398e+18,0.0043042500741,0.0062559677296,-0.004695697524599999
1.7177499775244398e+18,-0.011048697645750002,-0.0001238205358899996,0.012586947287099998
1.7177499777244398e+18,-0.008529111136775002,-0.004166202235555002,-0.0073086700746349985
1.7177499779244398e+18,-0.002275591261652381,-0.01660944227542857,0.0029478986814047616
1.7177499781244398e+18,-0.0006348461386500002,-0.015462673362855001,0.015543646494101
1.7177499783244398e+18,-0.0032120768566549994,0.014448000315685,-0.01741566462535
1.7177499785244398e+18,-0.01066413468175,0.01671052459879,-0.009901204390250001
1.7177499787244398e+18,0.008949167422064998,-0.01089643315615,-0.002085082826627501
1.7177499789244398e+18,0.0263987772402,0.054178946839,0.028275636537000003
1.7177499791244398e+18,0.004316586221355,-0.00257974609142,-0.00340576068291
1.7177499793244398e+18,0.02461463703019048,0.02592742052897619,0.009076797103404763
1.7177499795244398e+18,0.0043861686477500005,0.01002235196,-0.0032313503319804995
1.7177499797244398e+18,-0.00386681709206,-0.0222795438497,-0.011219527968130001
1.7177499799244398e+18,-0.0007869640714500001,-0.01243778648825,-0.012756788474449998
1.7177499801244398e+18,-0.007892426312074999,-0.020714282349344994,-0.007070768170700001
1.7177499803244398e+18,0.0131695417574,0.0027008824165000002,-0.0033546572435149994
1.7177499805244398e+18,0.011450630484700002,0.013982760882399997,0.013097971527285002
1.7177499807244398e+18,0.012370678218780951,-0.015353388541349999,0.004043191870871428
1.7177499809244398e+18,0.008119931555032,-0.014333507231939999,-0.008225496369444998
1.7177499811244398e+18,0.020620101877000002,0.00397162952024,0.0150103803252
1.7177499813244398e+18,0.010884991498099999,-0.00695342686925,0.0027823800568949992
1.7177499815244398e+18,0.005292968347435,0.006096926820200001,-0.01056524197346
1.7177499817244398e+18,0.007278130081595,0.013907874736450004,0.003681400133255
1.7177499819244398e+18,-0.0037120832423699996,4.553538747444998e-05,0.00445361047757
1.7177499821244398e+18,-0.005733206088299999,-0.01637613571867,0.0042826941239
1.7177499823244398e+18,-0.0027765989571,-0.03132582136730477,0.0009082398878238097
1.7177499825244398e+18,-0.0171795834331,-0.015054915798999998,-0.0006046218041000001
1.7177499827244398e+18,-0.00710152990655,0.004342702182765,0.0024664573023049996
1.7177499829244398e+18,-0.0035552895860650005,0.0032801965598000006,0.001863008830745
1.7177499831244398e+18,-0.00550919189132935,-0.002517195511565,-0.00032119680538700003
1.7177499833244398e+18,0.00479872089335,0.007860383880469498,-0.0014678686100600001
1.7177499835244398e+18,-0.0004901528998499998,-0.00033648934943000005,-0.00866606640525
1.7177499837244398e+18,0.009703941288857142,0.003898259851142857,0.0015970572131195242
1.7177499839244398e+18,0.010732400091200002,-0.003371454647304,-0.0009764878020905
1.7177499841244398e+18,0.005138698330885,0.007683107583365001,0.004484326223535
1.7177499843244398e+18,0.00922262845585,0.00930087609482,0.0027150569484599993
1.7177499845244398e+18,0.012549877715150001,0.014290278370132501,0.0096220770155
1.7177499847244398e+18,0.0013079948953800002,0.025124036485615002,-0.003793780902099999
1.7177499849244398e+18,-0.0037558703915610003,-0.012857065547399998,0.0013844609731249995
1.7177499851244398e+18,-0.0013125376175619052,-0.001513247766571428,-0.0029697939975214284
1.7177499853244398e+18,0.0030797072745650006,-0.003391943697185,-0.0033241782103950006
1.7177499855244398e+18,-0.00226948703643,0.0032707955455,0.0023533268017055004
1.7177499857244398e+18,0.028162114589460004,-0.012096818862349997,-0.00683827198228
1.7177499859244398e+18,0.018746859673749998,0.020397056732200002,0.0011641680967149997
1.7177499861244398e+18,0.015481389965000003,0.0018423054715050007,0.0019625584944560005
1.7177499863244398e+18,-0.017331147089349998,-0.024471924032054997,0.0030188773524095006
1.7177499865244398e+18,0.63591191713705,-0.37673090249999996,-0.0201911699388
1.7177499867244398e+18,1.2726945394904763,-0.22386431037666668,-0.24954637760890472
1.7177499869244398e+18,0.49541464298,0.08447485566924999,-0.2809428606215001
1.7177499871244398e+18,0.39779661596500004,-0.13248989521585,0.029918386323500003
1.7177499873244398e+18,-0.20572872203895,0.08461883648655001,0.0766191095832615
1.7177499875244398e+18,-0.16657696925249998,0.0318354612096,0.07381431553199999
1.7177499877244398e+18,-0.72415525319,-0.10246130072227,0.1091329410745
1.7177499879244398e+18,-0.709627236425,-0.021563035322199994,0.0890976188709
1.7177499881244398e+18,-0.2776817633247619,-0.02217577649685714,-0.009021209908428574
1.7177499883244398e+18,0.0020511722665500025,-0.197268013656,0.05949939888254999
1.7177499885244398e+18,0.331843695045,-0.20035663648149998,-0.10645190699909998
1.7177499887244398e+18,0.583264082675,0.156925197177,0.01916812668135
1.7177499889244398e+18,0.58029566109,0.201918220531,-0.02138464534676
1.7177499891244398e+18,0.11415951792549998,0.14943275741599998,-0.01361491981687
1.7177499893244398e+18,-0.13975582658475,0.118450021365,-0.01244212151505
1.7177499895244398e+18,-0.6690847206571428,0.23262564979285716,-0.012767916002319045
1.7177499897244398e+18,-0.709988695385,0.002612776148835002,0.019314427732450002
1.7177499899244398e+18,-0.29556887633999995,-0.0918552309755,-0.023623693292869993
1.7177499901244398e+18,0.14869953945124997,-0.23081677220500002,-0.028923706349990003
1.7177499903244398e+18,0.32817936465,-0.217235058799821,-0.05203621750180001
1.7177499905244398e+18,0.35860135182999997,0.032914047595649996,-0.08670768957019999
1.7177499907244398e+18,0.5755655691050002,0.06194078534749999,-0.08638494130150001
1.7177499909244398e+18,0.5285820558700001,0.1089649238575,-0.05357695352149999
1.7177499911244398e+18,0.008673216083476196,0.12603457493619044,0.01168102606866667
1.7177499913244398e+18,-0.335616404378,0.11799392169399998,-0.017584911921050002
1.7177499915244398e+18,-0.72371525318,-0.107603337245,0.026367315067250003
1.7177499917244398e+18,-0.429817350205,-0.15908421575799997,0.082840139603
1.7177499919244398e+18,-0.139764884671,-0.0560692585105,0.026991970814549997
1.7177499921244398e+18,0.0873484233364,-0.097107878139,-0.0463027207549
1.7177499923244398e+18,0.27562640607450006,0.03551691609344999,-0.091915530892095
1.7177499925244398e+18,0.608662162514286,0.09539241446637618,-0.015720714105571427
1.7177499927244398e+18,0.40139310955999996,0.10354177699750003,-0.058963166877600004
1.7177499929244398e+18,0.18430939687999998,0.04536025335393,0.036931866173200004
1.7177499931244398e+18,-0.06397156811044999,-0.0074829005986000036,0.016616063879850002
1.7177499933244398e+18,-0.575263126205,0.022672917413649997,0.0573943478405
1.7177499935244398e+18,-0.44272920041499997,-0.080310485172595,-0.0035701685117499986
1.7177499937244398e+18,-0.31566689088999994,0.0964395140127,0.06547228032444999
1.7177499939244398e+18,-0.08386169560523807,0.10908296366666664,0.08827538984076189
1.7177499941244398e+18,0.083406066156485,-0.008909599423700001,-0.07968685999849999
1.7177499943244398e+18,0.39152222723400004,0.02483638287665,-0.0173235036024905
1.7177499945244398e+18,0.6822602689250001,-0.0757463576693,-0.009241853642825001
1.7177499947244398e+18,0.60822307318,-0.0824084070535,-0.034543700004800004
1.7177499949244398e+18,-0.11580698704315003,-0.03244167798569501,0.056152070417199995
1.7177499951244398e+18,-0.319345503113,-0.06572452179865,0.05758565975174501
1.7177499953244398e+18,-0.548370942475,-0.04735807780715,0.09760195910950001
1.7177499955244398e+18,-0.5050755100571427,-0.19176815991857143,0.03707198841847619
1.7177499957244398e+18,-0.697886937845,0.40966378973050005,0.020449143980749998
1.7177499959244398e+18,-0.376424060015,0.34685292096000003,0.014598020771550002
1.7177499961244398e+18,-0.0765040923795,0.15286670008349504,0.005195570877
1.7177499963244398e+18,-0.01997771374945,-0.06123390630485,-0.026159050804599997
1.7177499965244398e+18,-0.01606166954035,0.04916151324275,-0.0179040862357
1.7177499967244398e+18,-0.0008794061720449999,-0.0012950613628850002,-0.0268614029975
1.7177499969244398e+18,-0.007900573513100001,0.009772468823709524,-0.015274128542809526
1.7177499971244398e+18,-0.0028079650770849998,0.00224404796022,-0.0022303497069749998
1.7177499973244398e+18,-0.0033627786631615364,-0.04491749757230769,-0.0077400842251538465
1.7177499975244398e+18,,,
