Timestamps,Acc_X,Acc_Y,Acc_Z
1.7177173792265912e+18,0.6854674203047617,4.046392626047619,8.879705984952379
1.7177173794265912e+18,0.44550357056,4.15112269585,8.820310569750001
1.7177173796265912e+18,0.4447775802600001,4.0260877075499995,8.899458480799998
1.7177173798265912e+18,0.5108202438350001,4.12971720885,8.77238024145
1.7177173800265912e+18,0.558907745365,4.1846080627,8.6875366744
1.7177173802265912e+18,0.49869545746000005,4.0393950348,9.115197349499999
1.7177173804265912e+18,0.5123695220850001,4.284540252699999,8.4679657745
1.7177173806265912e+18,0.5011293247761905,4.485422515904761,7.084781406952382
1.7177173808265912e+18,0.4372557220620001,2.6342146224999996,8.83179917895
1.7177173810265912e+18,0.33233141328349997,1.2999866638,10.784615776749998
1.7177173812265912e+18,-0.064463447567,0.684601364125,11.86609433
1.7177173814265912e+18,0.2764077072165,1.019724472005,10.80844622
1.7177173816265912e+18,0.3910917205750001,2.28900249475,9.647894600250002
1.7177173818265912e+18,0.349560585022,3.6412829132,8.11945301055
1.7177173820265912e+18,0.3342691693870476,4.966222686857143,7.2805885097619045
1.7177173822265912e+18,0.7135811004274001,5.173818489049999,6.782687828200001
1.7177173824265912e+18,0.4238136749345,3.4885031204499994,8.6872672348
1.7177173826265912e+18,0.7610174560799999,1.9441196823499998,10.01444485515
1.7177173828265912e+18,1.1025173035400002,1.2357702026,10.430145400499999
1.7177173830265912e+18,1.6188460921999996,1.021408470175,11.202561653500002
1.7177173832265912e+18,1.5993790739700002,1.6729136580500001,10.44265937825
1.7177173834265912e+18,0.43186692809975497,2.7035279846,9.191725708049999
1.7177173836265912e+18,0.03497013637476191,4.746322827952381,7.126074109857141
1.7177173838265912e+18,0.8339907074149998,5.4091216736500005,6.7738936156500005
1.7177173840265912e+18,0.33203203582550006,4.4181074981499995,7.33057099925
1.7177173842265912e+18,0.41730221555039504,2.3687192230000003,9.71660920655
1.7177173844265912e+18,1.075887680095,1.3875919877,10.4290227356
1.7177173846265912e+18,1.37689672851,1.3954730987,11.3050909415
1.7177173848265912e+18,1.15038775634,1.7820067977,10.818587630500001
1.7177173850265912e+18,0.2672513907191905,2.424315752380952,9.563248836333333
1.7177173852265912e+18,-0.007776329047999994,4.0549027863000005,8.03859864815
1.7177173854265912e+18,0.36092944337254995,5.4836292343999995,6.48903598015
1.7177173856265912e+18,0.11605366515445,5.02239337925,6.8036143113
1.7177173858265912e+18,0.25069118499840004,3.5028732377000003,8.459500877599998
1.7177173860265912e+18,0.421680610676,1.9069669418500002,10.286032585299997
1.7177173862265912e+18,1.4955025864000002,1.412934288,10.8022865287
1.7177173864265912e+18,1.5756833495999998,1.3716202011499998,11.2161009985
1.7177173866265912e+18,1.0651920645380952,2.0465370614761906,10.420252401904762
1.7177173868265912e+18,0.97495257572,2.78578942115,9.06491690805
1.7177173870265912e+18,0.29029882049449995,4.314612716750001,7.5742941742
1.7177173872265912e+18,0.9135727157200002,6.049774429299999,6.1355011596499995
1.7177173874265912e+18,0.6192846908495,4.833725715599999,6.939374496400001
1.7177173876265912e+18,0.47825546260999996,3.5441199644999997,9.48451684535
1.7177173878265912e+18,0.5385126571450001,2.4573124922500003,9.53318813335
1.7177173880265912e+18,0.5236040169809525,2.016791774190476,10.535170571904763
1.7177173882265912e+18,0.34536181639349994,1.7350419615500001,11.248433760999998
1.7177173884265912e+18,0.227781326294,2.3460638350500003,9.992695083749998
1.7177173886265912e+18,0.3837943954365,2.70849765005,9.37796841435
1.7177173888265912e+18,0.33884287262900004,4.192197280949999,7.65693731695
1.7177173890265912e+18,0.898117355366,5.090449356150001,7.3606060409500005
1.7177173892265912e+18,0.9189465408749997,4.526654273850001,6.9934196091
1.7177173894265912e+18,0.8273145904654999,3.2196023025500002,8.966489090100001
1.7177173896265912e+18,1.1526031494999998,1.8298305620476192,10.089960676666667
1.7177173898265912e+18,0.7516469421774999,1.14859149166,9.5281361393
1.7177173900265912e+18,0.24702381132600001,1.0556497650699999,11.12315178755
1.7177173902265912e+18,-0.9057739334399999,-0.10261910246749997,9.867121215500001
1.7177173904265912e+18,-0.4227209472649999,0.24632775878899998,9.7437627412
1.7177173906265912e+18,-0.5276452560349999,0.42419538116949995,9.839937743250001
1.7177173908265912e+18,-0.550308128355,0.291002357485,9.720950179999999
1.7177173910265912e+18,-0.16194893973095242,0.34230959210952383,9.80565902719048
1.7177173912265912e+18,-0.29351712798999996,0.29146639252,9.770175315900001
1.7177173914265912e+18,-0.27518025971,0.3235895919849999,9.784478073099997
1.7177173916265912e+18,-0.297214439395,0.33328942108000004,9.763903358399999
1.7177173918265912e+18,-0.341649536135,0.3132910079899999,9.781364547850002
1.7177173920265912e+18,-0.34205369567999994,0.26112448882000006,9.73721385955
1.7177173922265912e+18,-0.5730159072800001,0.20185523986500004,9.7595549011
1.7177173924265912e+18,-0.22887405395949995,0.18455870819960002,9.7831832657
1.7177173926265912e+18,-0.1525399344388095,0.2270207650214619,9.794147251523809
1.7177173928265912e+18,-0.46690157318750003,0.1904040527425,9.7508130799
1.7177173930265912e+18,-0.06590045929335,0.234390083318,9.778048942549999
1.7177173932265912e+18,-0.410678489685,0.387903350835,9.800794143700001
1.7177173934265912e+18,-0.263182708735,0.42929228211000003,9.751531585650001
1.7177173936265912e+18,-0.38642891693,0.5446424102849999,9.76765306095
1.7177173938265912e+18,-0.33322206115499997,0.6652091903749999,9.760295860349999
1.7177173940265912e+18,-0.3506280081571428,0.7605897739952383,9.746646031047622
1.7177173942265912e+18,-0.33733101654000003,0.7967631225599999,9.704222465600001
1.7177173944265912e+18,-0.32656091307499996,0.8032596130349999,9.74311907955
1.7177173946265912e+18,-0.335317703245,0.780738944995,9.7373860017
1.7177173948265912e+18,-0.34889447020500003,0.748570838925,9.744825531
1.7177173950265912e+18,-0.336298164365,0.740450225825,9.744825531150001
1.7177173952265912e+18,-0.35088533021,0.7293133849999999,9.75794574745
1.7177173954265912e+18,-0.34482293699999994,0.7246430969150001,9.7568679886
1.7177173956265912e+18,-0.3447972760857143,0.7218275233619048,9.747843540666667
1.7177173958265912e+18,-0.33474140167,0.7124284973200001,9.752721611100002
1.7177173960265912e+18,-0.369491638185,0.7223304062,9.767263870399997
1.7177173962265912e+18,-0.311404930115,0.7378007354749999,9.751494163450001
1.7177173964265912e+18,-0.34245037078499996,0.7528145141599999,9.74706337745
1.7177173966265912e+18,-0.32123199463999996,0.769976325975,9.7385161515
1.7177173968265912e+18,-0.333064888005,0.77681710053,9.753814338649999
1.7177173970265912e+18,-0.3297286115285714,0.8015759713333334,9.733017229428572
1.7177173972265912e+18,-0.322938446055,0.8148979110600001,9.71609278105
1.7177173974265912e+18,-0.32080538176500006,0.81147003937,9.740604309099998
1.7177173976265912e+18,-0.32681538391,0.810579391485,9.74281970225
1.7177173978265912e+18,-0.32877630615,0.81344593048,9.737977271999998
1.7177173980265912e+18,-0.322429504385,0.8136180725100001,9.739466674900001
1.7177173982265912e+18,-0.32642619324,0.7893460464500001,9.7508579863
1.7177173984265912e+18,-0.31105316161,0.7902516632150001,9.739242141800002
1.7177173986265912e+18,-0.33280792236190476,0.7922239903,9.740487409380952
1.7177173988265912e+18,-0.32534843445000006,0.7525151367299999,9.744975219699999
1.7177173990265912e+18,-0.34158966065,0.7373965759349999,9.7649511796
1.7177173992265912e+18,-0.340414604175,0.7525750122050001,9.753110801699998
1.7177173994265912e+18,-0.343573036195,0.7605833587699999,9.74743011475
1.7177173996265912e+18,-0.33750315857,0.77901004029,9.741936538700001
1.7177173998265912e+18,-0.33643288422000006,0.78261005401,9.751531585749998
1.7177174000265912e+18,-0.3394583783809524,0.7999507795,9.749703957619047
1.7177174002265912e+18,-0.31986234283,0.8293503570449999,9.733718627950001
1.7177174004265912e+18,-0.316292266855,0.8752748565699999,9.71669153595
1.7177174006265912e+18,-0.32966695403499996,0.8628881149250001,9.73224419405
1.7177174008265912e+18,-0.32160621644,0.8613762588500002,9.73843382255
1.7177174010265912e+18,-0.3399580536,0.8679475936850001,9.734519462600002
1.7177174012265912e+18,-0.32584989166000006,0.8579109649750001,9.741442565849999
1.7177174014265912e+18,-0.33102912139500007,0.817307899465,9.703915603399999
1.7177174016265912e+18,-0.1897767857161905,0.6221063232380953,9.792956869904762
1.7177174018265912e+18,-0.23114932251,0.5796022110049999,9.754315795899998
1.7177174020265912e+18,-0.21734802246999996,0.532016166695,9.77998741145
1.7177174022265912e+18,-0.33847613525,0.54661081697,9.75403887185
1.7177174024265912e+18,-0.238618789675,0.532105979925,9.77686640165
1.7177174026265912e+18,-0.21272264098750004,0.4959561538649999,9.747355270399998
1.7177174028265912e+18,-0.17842147065199998,0.4587585067750001,9.78241236875
1.7177174030265912e+18,-0.2103981890004762,0.5200257437619048,9.758200574476191
1.7177174032265912e+18,-0.1789902877865,0.446798377985,9.76094700615
1.7177174034265912e+18,-0.29437035370000003,0.45157344819,9.765744529649998
1.7177174036265912e+18,-0.303074752815,0.45680506896999995,9.756351562499999
1.7177174038265912e+18,-0.174117919923,0.41862696077000006,9.763312088
1.7177174040265912e+18,-0.33182995606,0.38995408630500006,9.7761104736
1.7177174042265912e+18,-0.05376818847349999,0.28604766082000005,9.78173128505
1.7177174044265912e+18,-0.1700107465538095,0.42225049700952383,9.786876656666667
1.7177174046265912e+18,-0.21118084717100002,0.398748298655,9.7466667022
1.7177174048265912e+18,-0.1776356048635,0.39685473632,9.75979440305
1.7177174050265912e+18,-0.25232279205950003,0.344725639345,9.77720320125
1.7177174052265912e+18,-0.165600631711395,0.398261810305,9.7841712112
1.7177174054265912e+18,-0.30648765564499997,0.40482566071,9.75937527465
1.7177174056265912e+18,-0.181370338447,0.345069923395,9.772959526100001
1.7177174058265912e+18,-0.29766350556,0.36015106200999997,9.773483436749999
1.7177174060265912e+18,-0.235517381947619,0.3478409467333333,9.775749795
1.7177174062265912e+18,-0.483187706,0.345481567395,9.780631072949998
1.7177174064265912e+18,-0.21846320342499997,0.321838233955,9.7746435242
1.7177174066265912e+18,-0.32185320281499996,0.363571449275,9.771125839350002
1.7177174068265912e+18,-0.29511879729999996,0.37038977051,9.76435990905
1.7177174070265912e+18,-0.27591373443,0.3767515411349999,9.7630052262
1.7177174072265912e+18,-0.3002905426,0.38911582947000006,9.746509529099999
1.7177174074265912e+18,-0.30349744524761907,0.3864463806190476,9.758278983047619
1.7177174076265912e+18,-0.25743466185999997,0.37062178803,9.76504099275
1.7177174078265912e+18,-0.32810270691,0.39145845794499995,9.7685886155
1.7177174080265912e+18,-0.339726036075,0.35642381287,9.77545184315
1.7177174082265912e+18,-0.31150971222,0.38846468352999997,9.7753844834
1.7177174084265912e+18,-0.32740665435999994,0.37232823944500004,9.77923896795
1.7177174086265912e+18,-0.33142579651000004,0.35423835755000005,9.76361894995
1.7177174088265912e+18,-0.326134300235,0.381421829235,9.776499664300001
1.7177174090265912e+18,-0.3418676539857143,0.38077959333333333,9.772984117666667
1.7177174092265912e+18,-0.304481826785,0.40302191162500006,9.743530723700001
1.7177174094265912e+18,-0.28624225617,0.451910247805,9.7432388305
1.7177174096265912e+18,-0.27443930053,0.44378215026999995,9.767114181700002
1.7177174098265912e+18,-0.29386889649,0.45423790740000003,9.764704193250001
1.7177174100265912e+18,-0.26682014466,0.46341382599000003,9.751898323049998
1.7177174102265912e+18,-0.26063051604500004,0.3866983566250001,9.7798826294
1.7177174104265912e+18,-0.2259800720190476,0.4074598257952381,9.771929168714287
1.7177174106265912e+18,-0.281601905835,0.40531214904999996,9.778161209050001
1.7177174108265912e+18,-0.2545756073,0.39273829651,9.7750027772
1.7177174110265912e+18,-0.28109296417999996,0.40022273254000007,9.7768364639
1.7177174112265912e+18,-0.2581681366,0.400522109985,9.7695391388
1.7177174114265912e+18,-0.292521698,0.42379870604000003,9.767847656249998
1.7177174116265912e+18,-0.2475552063,0.42453218079,9.76269836415
1.7177174118265912e+18,-0.287237686145,0.41991428374999995,9.743238830700001
1.7177174120265912e+18,-0.2706657191619047,0.4118079267238095,9.767060721190475
1.7177174122265912e+18,-0.270966522215,0.41722737122,9.769868454
1.7177174124265912e+18,-0.29228968048000004,0.40672670746,9.7696214676
1.7177174126265912e+18,-0.26597440337,0.41199575043000003,9.770414817899999
1.7177174128265912e+18,-0.2983670425549999,0.409952499385,9.76300522615
1.7177174130265912e+18,-0.266086669925,0.40550674438499995,9.761560730000001
1.7177174132265912e+18,-0.31842533111000004,0.39181771088,9.7867159195
1.7177174134265912e+18,-0.2888493347190476,0.4000110299333334,9.780661010809526
1.7177174136265912e+18,-0.28819569397,0.413881828305,9.7665453644
1.7177174138265912e+18,-0.28749964141000006,0.41559576417000005,9.766186111449999
1.7177174140265912e+18,-0.30470635986,0.42038580323,9.769112525999999
1.7177174142265912e+18,-0.29729676819499995,0.42560993957500004,9.768244331400002
1.7177174144265912e+18,-0.27537485503500003,0.43111100006,9.745401832549998
1.7177174146265912e+18,-0.31681617736499995,0.44287653350500006,9.76623850245
1.7177174148265912e+18,-0.314084358215,0.4441039810249999,9.764517082249998
1.7177174150265912e+18,-0.3186302621095238,0.4398282296333333,9.760502929619046
1.7177174152265912e+18,-0.32869397736500006,0.43931394194500006,9.766635177500001
1.7177174154265912e+18,-0.34974769592,0.42948687744,9.7681245803
1.7177174156265912e+18,-0.32547566986,0.4241953811550001,9.7666725998
1.7177174158265912e+18,-0.35476226806500005,0.43065444947,9.7727200241
1.7177174160265912e+18,-0.32485446167500004,0.4191658401400001,9.782397399900002
1.7177174162265912e+18,-0.33129107667,0.41881407166500007,9.7723008957
1.7177174164265912e+18,-0.33734848022380953,0.42205804007619047,9.769790758428574
1.7177174166265912e+18,-0.26048082732669997,0.4487667846750001,9.7416820679
1.7177174168265912e+18,-0.553938079835,0.511186981195,9.783490127450001
1.7177174170265912e+18,-0.51966684723,0.5082530822650001,9.756171936000001
1.7177174172265912e+18,-0.356491172785,0.480178962715,9.734833808899998
1.7177174174265912e+18,-0.4770354995849999,0.47246250914,9.75275154885
1.7177174176265912e+18,-0.39119650268000006,0.46776976776999996,9.7722260513
1.7177174178265912e+18,-0.4465513916,0.46341382598500014,9.762137031450001
1.7177174180265912e+18,-0.4234052385571429,0.4692171151238096,9.755998011952382
1.7177174182265912e+18,-0.46755271912000007,0.45692481995000006,9.76313994595
1.7177174184265912e+18,-0.39848634338499994,0.4586612091,9.7835050964
1.7177174186265912e+18,-0.44082579803999994,0.44510689545000004,9.78992674255
1.7177174188265912e+18,-0.2518213348515,0.361086616515,9.989529166649998
1.7177174190265912e+18,-0.010815010074499998,1.2178075561149997,11.035524011000001
1.7177174192265912e+18,0.4981416091960001,3.0428573456500003,9.9778309944
1.7177174194265912e+18,-0.9853865923714286,4.1914409964761905,8.686486358714285
1.7177174196265912e+18,-0.9346189498705002,4.344468132,7.718721336399999
1.7177174198265912e+18,0.30954130554524995,5.5521567307,6.9000138472499986
1.7177174200265912e+18,0.14583423613950003,5.8676631317000005,6.8980005339999995
1.7177174202265912e+18,-0.17467176819299998,5.4352348710000005,6.29957496645
1.7177174204265912e+18,0.244913200385,3.8830601347999996,9.14137790655
1.7177174206265912e+18,0.61213705443,2.2580842897499993,10.1716105261
1.7177174208265912e+18,0.02878514099385,2.0174970932000003,11.144040847500001
1.7177174210265912e+18,0.2263293456947619,2.5333746774761905,10.842495771142856
1.7177174212265912e+18,0.5736895065500001,3.517153541649999,9.219051383999998
1.7177174214265912e+18,0.7902366943350001,4.279892418,8.15909806825
1.7177174216265912e+18,0.26205255890405,5.2390154113500005,7.163690528949999
1.7177174218265912e+18,0.12202624511849999,5.650352531400001,6.680652511700001
1.7177174220265912e+18,0.24055725861344998,4.91100251775,6.9844757081000015
1.7177174222265912e+18,0.0445698165865,3.251486,9.4836860733
1.7177174224265912e+18,0.37909024919428574,1.6649092320476189,10.382131675523809
1.7177174226265912e+18,0.65770230102,1.5381039962999998,11.407687591000002
1.7177174228265912e+18,0.817959045369,2.1003947068000004,10.7515345693
1.7177174230265912e+18,0.6228023757899999,2.8040215072999994,9.259175445700002
1.7177174232265912e+18,0.40686142730799996,3.7693116759,8.790103385950001
1.7177174234265912e+18,0.42058788300125,4.8877184372,7.388784942600002
1.7177174236265912e+18,0.4944892043985001,5.70885088355,6.407994506850001
1.7177174238265912e+18,0.4231700134357143,5.164617265857144,6.494744110142857
1.7177174240265912e+18,0.1398017806725,3.8335281372500005,9.593415390050001
1.7177174242265912e+18,0.4084705810585,2.06274050905,10.117093895100002
1.7177174244265912e+18,0.446596298216675,2.1176837539499997,10.595618797
1.7177174246265912e+18,0.632502204865,2.4669075392999997,11.023923133999999
1.7177174248265912e+18,0.687737342815,2.8183542023,9.7025908588
1.7177174250265912e+18,1.1281365281050002,3.79392798605,8.8823191224
1.7177174252265912e+18,0.6485563201750001,4.7913114166,7.750522705050001
1.7177174254265912e+18,0.20997050694,5.770592847571429,6.547363259380952
1.7177174256265912e+18,0.28849507141749997,5.646243576,6.6623979721
1.7177174258265912e+18,0.3620820464925,4.55105353535,7.8006833954
1.7177174260265912e+18,0.80901514436,3.1808478927999997,9.671410698249998
1.7177174262265912e+18,1.5674055632950001,2.11247458655,10.183682923149998
1.7177174264265912e+18,1.8119146041,1.9852990493999996,11.080213576999999
1.7177174266265912e+18,1.2792098693300002,2.7063421326499997,10.26220962455
1.7177174268265912e+18,1.2255657086428573,3.4271945410000004,9.11845236642857
1.7177174270265912e+18,1.012576835648,4.5005934677,8.0561795884
1.7177174272265912e+18,0.38392911528999996,5.539799926799999,7.455980209400001
1.7177174274265912e+18,0.40423439026999997,5.984712226899999,6.116947242650001
1.7177174276265912e+18,0.39155575562799994,5.672341804450001,6.591789802599999
1.7177174278265912e+18,0.6472016372685001,4.6871505203499995,8.4646801072
1.7177174280265912e+18,0.6002592544500001,3.0726379166499997,9.17101627355
1.7177174282265912e+18,0.641408683788,2.7306665496,9.7717769852
1.7177174284265912e+18,-0.3857478332254286,1.2074391173761903,10.933306928619047
1.7177174286265912e+18,-0.8228239289000001,0.42437500761999997,9.93107572135
1.7177174288265912e+18,-0.584339859005,0.67922005462,9.729437530450001
1.7177174290265912e+18,-0.37249289703,0.685566856395,9.7246400069
1.7177174292265912e+18,-0.515131279,0.5601127395550001,9.727177230750002
1.7177174294265912e+18,-0.449605041495,0.577835884095,9.79863862605
1.7177174296265912e+18,-0.28759693909000006,0.527046501145,9.770467208850002
1.7177174298265912e+18,-0.3725182015619048,0.5150076076000001,9.771936296666668
1.7177174300265912e+18,-0.29466973112500006,0.49195946502500004,9.767705452
1.7177174302265912e+18,-0.35434313966000003,0.493074645995,9.7879508514
1.7177174304265912e+18,-0.313440696715,0.5104909286450001,9.7710210571
1.7177174306265912e+18,-0.36146832274999996,0.502302955625,9.7667025374
1.7177174308265912e+18,-0.3321218490599999,0.515071403495,9.75787838745
1.7177174310265912e+18,-0.3559298401,0.5367388458200001,9.7647940063
1.7177174312265912e+18,-0.32709230804,0.5225782928600001,9.7564488603
1.7177174314265912e+18,-0.31768223353809527,0.5206957789857144,9.73511999947619
1.7177174316265912e+18,-0.30688433075000005,0.52459909058,9.73975108335
1.7177174318265912e+18,-0.286930824285,0.503957015985,9.7519731674
1.7177174320265912e+18,-0.36587665558500004,0.50377738953,9.7721586915
1.7177174322265912e+18,-0.296802795405,0.5157375183049999,9.7691649169
1.7177174324265912e+18,-0.361198883065,0.5073175277599999,9.760348251300002
1.7177174326265912e+18,-0.35178346252500003,0.5053491210999999,9.763633918650003
1.7177174328265912e+18,-0.3234844534857143,0.47175469534761905,9.779591805523811
1.7177174330265912e+18,-0.344111915585,0.494062591535,9.7543681869
1.7177174332265912e+18,-0.30430220032499994,0.46572651673499993,9.79519578555
1.7177174334265912e+18,-0.41260947417000005,0.510243942255,9.760460517899999
1.7177174336265912e+18,-0.43004821015,0.5110372924800002,9.760048873899999
1.7177174338265912e+18,-0.249441284185,0.5139412536599999,9.760625175449999
1.7177174340265912e+18,-0.44118505096000005,0.517346672065,9.7646967086
1.7177174342265912e+18,-0.33202455139000003,0.5154605941849999,9.75788587185
1.7177174344265912e+18,-0.33156051636190476,0.5286435372476189,9.712666691380951
1.7177174346265912e+18,-0.3266731796199999,0.513170356755,9.7568380508
1.7177174348265912e+18,-0.34608780670000006,0.5252277832,9.765055961549999
1.7177174350265912e+18,-0.3261268158,0.5249134368950001,9.7559698563
1.7177174352265912e+18,-0.338550979625,0.47653404236499997,9.7894477387
1.7177174354265912e+18,-0.29883856202000003,0.49790959166500004,9.75799813855
1.7177174356265912e+18,-0.33218920897999993,0.5047952728199999,9.767645576450002
1.7177174358265912e+18,-0.30706859043809526,0.48224716187142846,9.782264818428573
1.7177174360265912e+18,-0.33246613310999995,0.49928672789999995,9.775040199349998
1.7177174362265912e+18,-0.322713912975,0.49833620453000005,9.76636573795
1.7177174364265912e+18,-0.31349308776499996,0.513192810055,9.7595249633
1.7177174366265912e+18,-0.32270642853000003,0.49747549437500005,9.764569473250003
1.7177174368265912e+18,-0.308755439765,0.494107498155,9.743800163299998
1.7177174370265912e+18,-0.31255004882000004,0.49441436004499995,9.74727294165
1.7177174372265912e+18,-0.282133300785,0.48657067107500007,9.76945681
1.7177174374265912e+18,-0.303582981652381,0.4871156093,9.762705492238094
1.7177174376265912e+18,-0.30255084228499995,0.4810022506749999,9.761246383649999
1.7177174378265912e+18,-0.30198202513999994,0.482386871335,9.761261352399998
1.7177174380265912e+18,-0.31511721039000007,0.458698631295,9.762024765149999
1.7177174382265912e+18,-0.29321026611499995,0.46181964112499996,9.769988205
1.7177174384265912e+18,-0.32452514646999997,0.45374393462499996,9.77033997345
1.7177174386265912e+18,-0.27454408264999997,0.4576283569249999,9.769022712649999
1.7177174388265912e+18,-0.3367069571380953,0.44962214877619044,9.776320037761906
1.7177174390265912e+18,-0.3041899337799999,0.45554019928499995,9.776162864649999
1.7177174392265912e+18,-0.31405442048000004,0.47513445281,9.762556160050002
1.7177174394265912e+18,-0.29875623321499994,0.465097824095,9.75856695555
1.7177174396265912e+18,-0.30493837738499996,0.4798421631,9.77149257675
1.7177174398265912e+18,-0.297977851875,0.474662933355,9.749735321100001
1.7177174400265912e+18,-0.28000023651,0.485545303345,9.7448854065
1.7177174402265912e+18,-0.28963270569,0.4690496063249999,9.77237574015
1.7177174404265912e+18,-0.2946586826857143,0.4720754569000001,9.753047005857143
1.7177174406265912e+18,-0.310387046815,0.47970744323499986,9.767323745799999
1.7177174408265912e+18,-0.30887519073499997,0.47702801514,9.7631549148
1.7177174410265912e+18,-0.30086684418000004,0.46387786101999995,9.777405281099998
1.7177174412265912e+18,-0.29844937133500005,0.4754862213199999,9.758095436199998
1.7177174414265912e+18,-0.3082090759249999,0.4805382156350001,9.7651831969
1.7177174416265912e+18,-0.27683432007,0.472582260135,9.7798152694
1.7177174418265912e+18,-0.30746776035714285,0.48269622802857143,9.770132904142857
1.7177174420265912e+18,-0.30438452912,0.49177983855499996,9.7667474442
1.7177174422265912e+18,-0.30113628388,0.504997352595,9.7654002456
1.7177174424265912e+18,-0.30725106811499997,0.50733249664,9.760423095699998
1.7177174426265912e+18,-0.294527526845,0.50876202391,9.769269699100002
1.7177174428265912e+18,-0.28397447205500004,0.50977990723,9.75775863625
1.7177174430265912e+18,-0.27640022278500004,0.50683103943,9.741030921999998
1.7177174432265912e+18,-0.25401463100476185,0.508620888842857,9.757373722619048
1.7177174434265912e+18,-0.27479855346499993,0.514644790645,9.75735447695
1.7177174436265912e+18,-0.28083849335500005,0.516134193425,9.760273406949999
1.7177174438265912e+18,-0.25828788758000004,0.51351464081,9.76105927275
1.7177174440265912e+18,-0.2844235382149999,0.5063220977799999,9.77379029835
1.7177174442265912e+18,-0.255466255195,0.49720605468,9.75870167535
1.7177174444265912e+18,-0.32171848297,0.5106930084199999,9.772420646799999
1.7177174446265912e+18,-0.18131794739,0.469124450685,9.759734527500003
1.7177174448265912e+18,-0.24994452341428575,0.4568927438047619,9.780775059333333
1.7177174450265912e+18,-0.214099777225,0.45483666229999997,9.771934158199999
1.7177174452265912e+18,-0.212797485355,0.45553271483,9.7766044464
1.7177174454265912e+18,-0.20900287627999997,0.4721182250950001,9.7679599228
1.7177174456265912e+18,-0.22949526214500002,0.46262796018999996,9.769748703100001
1.7177174458265912e+18,-0.15760725402499998,0.477327392575,9.76465928655
1.7177174460265912e+18,-0.174155342105,0.47006000518,9.7366824645
1.7177174462265912e+18,-0.13948137556238094,0.46184672764761914,9.761800231857142
1.7177174464265912e+18,-0.155144874575,0.46238097381499993,9.7690676192
1.7177174466265912e+18,-0.150294960025,0.443407928465,9.7749878083
1.7177174468265912e+18,-0.13425581360999997,0.45083248901,9.763154914800001
1.7177174470265912e+18,-0.15437397766,0.43589355467999996,9.777188232450001
1.7177174472265912e+18,-0.19628681947,0.444882362365,9.775451843099997
1.7177174474265912e+18,-0.1267788619925,0.4471725997799999,9.7800847092
1.7177174476265912e+18,-0.178376564015,0.4477563858050001,9.77043727105
1.7177174478265912e+18,-0.15117847986666663,0.4582827104809523,9.781152845190476
1.7177174480265912e+18,-0.16047379302,0.47734236144,9.7671815414
1.7177174482265912e+18,-0.152989356995,0.47826294707,9.77155245215
1.7177174484265912e+18,-0.13474978638649998,0.4832251281750001,9.74353820815
1.7177174486265912e+18,-0.171498367305,0.47743217466999993,9.767271354600002
1.7177174488265912e+18,-0.155796020505,0.4671934661900001,9.7639183273
1.7177174490265912e+18,-0.17173038482,0.47175148774000003,9.76738362115
1.7177174492265912e+18,-0.16502825055714285,0.46250963484761903,9.773597128666664
1.7177174494265912e+18,-0.180524597165,0.45372896575,9.771380310149999
1.7177174496265912e+18,-0.17376615143,0.450143920895,9.76385845195
1.7177174498265912e+18,-0.18300194549499998,0.44243495178500003,9.772540397650001
1.7177174500265912e+18,-0.18173707580499998,0.44282414247,9.776312553499999
1.7177174502265912e+18,-0.18680403901499998,0.46387037657999997,9.779665580749999
1.7177174504265912e+18,-0.22447320556,0.46563670348999997,9.77118571475
1.7177174506265912e+18,-0.15580350494150003,0.47946794129,9.758162796099999
1.7177174508265912e+18,-0.16702410016714286,0.5467059762142856,9.763888745952382
1.7177174510265912e+18,-0.33569940948,0.368675834645,9.75710749045
1.7177174512265912e+18,-0.238244567873,0.508507553115,9.7535823213
1.7177174514265912e+18,-0.29756620788,0.43523492432,9.772652664199999
1.7177174516265912e+18,-0.240227943415,0.46560676574499993,9.756733268599998
1.7177174518265912e+18,-0.20069515229,0.43114842225500005,9.774860572700002
1.7177174520265912e+18,-0.277290870655,0.43861788941,9.776417335649999
1.7177174522265912e+18,-0.13022918700666666,0.43019112723809516,9.782984749952382
1.7177174524265912e+18,-0.22305116273500003,0.446109809875,9.771140808150001
1.7177174526265912e+18,-0.02260299682685,0.40861278534,9.791640678350001
1.7177174528265912e+18,-0.15138020324015003,0.45704457093000006,9.76788507845
1.7177174530265912e+18,-0.24382795714850003,0.47763425445999996,9.715149742250002
1.7177174532265912e+18,-0.13608201598834996,0.47932573701000003,9.772824806300003
1.7177174534265912e+18,-0.194108848565,0.47547125243500005,9.769913360499999
1.7177174536265912e+18,-0.1657952270575,0.4955519943300001,9.7773903121
1.7177174538265912e+18,-0.1538015964995238,0.5070598493333334,9.762598571809525
1.7177174540265912e+18,-0.10036628723150001,0.52801199341,9.7786252442
1.7177174542265912e+18,-0.17601148224000002,0.539261100755,9.766949523849998
1.7177174544265912e+18,-0.1377809829715,0.5143154754649999,9.773558281
1.7177174546265912e+18,-0.16573535157699998,0.5091437301699999,9.766792350699998
1.7177174548265912e+18,-0.137758529663,0.5151387634249999,9.7496155701
1.7177174550265912e+18,-0.181549964915,0.53013008881,9.744705779950001
1.7177174552265912e+18,-0.14341605050476194,0.5235968889666667,9.764644317571427
1.7177174554265912e+18,-0.15406711577999999,0.51608928681,9.767099212649999
1.7177174556265912e+18,-0.177845169065,0.4986430664,9.76004138955
1.7177174558265912e+18,-0.130027107239,0.502609817505,9.7694942322
1.7177174560265912e+18,-0.18382523345,0.4904401245249999,9.7642476425
1.7177174562265912e+18,-0.162277542115,0.493673400875,9.781005294849999
1.7177174564265912e+18,-0.193008636476,0.40118074035499995,9.8527061922
1.7177174566265912e+18,0.04756359100939998,0.48479685974000003,9.939997169349999
1.7177174568265912e+18,0.05973292759347617,1.489637996152381,10.47940083095238
1.7177174570265912e+18,0.2656825103931,3.8724696579500004,10.1868039324
1.7177174572265912e+18,0.82991168974,4.2025482559,8.429959808549999
1.7177174574265912e+18,1.1883712692200001,4.8598913040500005,7.7641892852500005
1.7177174576265912e+18,0.6330485686699999,5.2080822373,7.32475559225
1.7177174578265912e+18,0.23281086731300005,5.393449264499999,6.8226397476
1.7177174580265912e+18,0.04447251892450001,5.00843490595,6.95066102595
1.7177174582265912e+18,0.7905845424285713,3.193744288857143,9.176460310238095
1.7177174584265912e+18,0.57062088777,2.1136047364,10.3855755835
1.7177174586265912e+18,0.7200102310750001,1.91154741675,11.065910820000001
1.7177174588265912e+18,1.008482849155,2.4709940415,10.77532010745
1.7177174590265912e+18,1.1497590636550001,2.8801232528,9.202929908649999
1.7177174592265912e+18,0.8221877517099999,4.068299926699999,8.400164268549998
1.7177174594265912e+18,0.18232834625349997,4.86207675935,7.3735915375
1.7177174596265912e+18,0.351521507269,5.215678939750001,7.216014221200001
1.7177174598265912e+18,-0.05013859340438094,4.674358193571429,7.385741271904762
1.7177174600265912e+18,0.2311568069397,2.5102723617,9.428151558200002
1.7177174602265912e+18,0.08256081389935001,1.5344890136,10.2647842718
1.7177174604265912e+18,0.2011816406345,1.0223664779750004,11.016865310499998
1.7177174606265912e+18,0.422915542605,1.17932258605,10.784930122999999
1.7177174608265912e+18,0.179386962888,2.272888504,9.70905741055
1.7177174610265912e+18,0.574565185545,3.30899640675,9.25151886745
1.7177174612265912e+18,0.022275107252285715,4.421647992761905,8.356066327761905
1.7177174614265912e+18,-0.095037368774,5.4819452361,6.963541740299999
1.7177174616265912e+18,-0.193712173461,5.1724338685,6.68437227625
1.7177174618265912e+18,-0.21534219362750004,4.02574342345,8.059352989249998
1.7177174620265912e+18,0.27333908844199994,1.9197428741500002,9.85284091205
1.7177174622265912e+18,-0.5015096054150001,1.3465248870000002,10.753016487
1.7177174624265912e+18,0.03930077361400001,1.031804351675,11.2331131215
1.7177174626265912e+18,0.08462402344523812,1.4996101162857145,10.580241133142858
1.7177174628265912e+18,0.010912307725649996,2.0741393051499997,9.72036639405
1.7177174630265912e+18,0.2061587905994,3.1725177155,9.081891609249999
1.7177174632265912e+18,0.44779380797499996,4.453216987599999,7.833637367249999
1.7177174634265912e+18,0.5819598083630001,5.4974604721,6.6538432618000005
1.7177174636265912e+18,0.547853233342,4.8866631317,7.1929022826999995
1.7177174638265912e+18,0.14391073608200003,3.5819837264,8.44415778355
1.7177174640265912e+18,0.28308382415700006,1.91391998295,9.88421566815
1.7177174642265912e+18,0.43203016008095235,1.012038312695238,10.45547201857143
1.7177174644265912e+18,1.22128033452,0.2927986221367499,11.025038314
1.7177174646265912e+18,1.556313629145,0.584407218925,10.9009014585
1.7177174648265912e+18,0.45222459409499993,0.92749376677,9.906309722699998
1.7177174650265912e+18,0.5401742019600002,2.1114417343999996,9.292967673849999
1.7177174652265912e+18,0.04825215912530001,3.1699056473,8.924456497200001
1.7177174654265912e+18,0.267089584355,4.282474548250001,7.7678267212500005
1.7177174656265912e+18,0.3889055524614286,4.834995574952381,7.4060062735238095
1.7177174658265912e+18,0.368481239321,4.196852600100001,7.4647594529
1.7177174660265912e+18,0.80416522979,2.8313471832,9.100348228
1.7177174662265912e+18,0.656130569465,1.6122523041500003,9.7477594302
1.7177174664265912e+18,0.46113107300796496,1.231526527375,11.069031830250001
1.7177174666265912e+18,-0.50088839724,-0.18003062437799996,10.38718473825
1.7177174668265912e+18,-0.3242631912399,0.27154282379789996,9.991729590950001
1.7177174670265912e+18,-0.25025708769250005,0.44297383116800004,9.7510525818
1.7177174672265912e+18,-0.20091790335285714,0.35222468784809524,9.708090493380952
1.7177174674265912e+18,-0.1187031555,0.5969586182,9.320517883
1.7177174676265912e+18,,,
