Timestamps,Gyro_X,Gyro_Y,Gyro_Z,Label,Delta Time
1.7177475011680005e+18,0.0070038368471095,0.0353596059714761,0.021695229170238,1,13600000000
1.7177475013680005e+18,-0.00796374622705,-0.02997661000205,-0.01277494969575,1,13600000000
1.7177475015680005e+18,0.0144517108636749,0.1187090198958,0.0515334288594,1,13600000000
1.7177475017680005e+18,-0.0029527417532499,-0.0270338222852,0.0354370136273999,1,13600000000
1.7177475019680005e+18,-0.0449126923662999,-0.0267271690886,-0.0138202086094,1,13600000000
1.7177475021680005e+18,-0.6679549060800001,0.007305143445,-0.0444451356759,1,13600000000
1.7177475023680005e+18,-1.4460263907499995,0.303337104625,0.0152259190575,1,13600000000
1.7177475025680005e+18,-0.5954389822095238,0.1181334995375142,-0.0213650786534761,1,13600000000
1.7177475027680005e+18,0.1080566047645,-0.0155181092195,0.0683128339039049,1,13600000000
1.7177475029680005e+18,0.093713260067,-0.2266914930125,0.01236509001805,1,13600000000
1.7177475031680005e+18,0.61628782079,-0.057088570106,0.12232118738035,1,13600000000
1.7177475033680005e+18,0.4964660644600001,-0.1700141696264999,-0.1409026574711999,1,13600000000
1.7177475035680005e+18,0.5883755412,0.126176260976,-0.1027775862946999,1,13600000000
1.7177475037680005e+18,-0.5542095257835,0.1023350753796,0.0816306933399799,1,13600000000
1.7177475039680005e+18,-0.815854041347619,0.0135284673469999,0.0214784218993333,1,13600000000
1.7177475041680005e+18,-0.2649795319970001,0.0843930428598499,0.04216905367,1,13600000000
1.7177475043680005e+18,0.119048734387,-0.280040589254,-0.1575477887020049,1,13600000000
1.7177475045680005e+18,0.57428499312,0.155099512655,0.04551651962735,1,13600000000
1.7177475047680005e+18,0.653523030885,-0.0267380842429,0.0367893381025,1,13600000000
1.7177475049680005e+18,0.3750603735465,-0.1036946771887,-0.00782753661915,1,13600000000
1.7177475051680005e+18,-0.554454878725,0.0609346990464999,0.0144832304727499,1,13600000000
1.7177475053680005e+18,-0.6701097956761904,0.0035486458280476,0.0053380829139047,1,13600000000
1.7177475055680005e+18,-0.30794788243984,-0.15437031094075,-0.00781595642095,1,13600000000
1.7177475057680005e+18,-0.1234243581114999,0.2427269686939999,0.00985657879375,1,13600000000
1.7177475059680005e+18,0.1940639218365,0.093678323081,0.113076750662,1,13600000000
1.7177475061680005e+18,0.502128057185,-0.3834155201945,0.00457765937255,1,13600000000
1.7177475063680005e+18,0.374568890541,-0.0758805341009999,-0.111873780196,1,13600000000
1.7177475065680005e+18,0.1604258999189999,0.151151533278,-0.00020106702485,1,13600000000
1.7177475067680005e+18,-0.5445747166899999,-0.003855170961,0.0761883565503999,1,13600000000
1.7177475069680005e+18,-0.5721761442428571,0.1668981853061904,-0.0265969624080952,1,13600000000
1.7177475071680005e+18,-0.2232850099406999,0.1174896865076499,0.01468797181805,1,13600000000
1.7177475073680005e+18,-0.038198526112,0.1958356119664999,0.0255974128971,1,13600000000
1.7177475075680005e+18,0.2801128809182,0.0574505306875,0.0665343041416915,1,13600000000
1.7177475077680005e+18,0.5263190569345,-0.1669110634295,0.0992586797518499,1,13600000000
1.7177475079680005e+18,0.5687869742625,-0.2719336353295,-0.0949861130688499,1,13600000000
1.7177475081680005e+18,-0.3590408200665,0.0607159635005,0.0282235749165499,1,13600000000
1.7177475083680005e+18,-0.638842609652381,0.1252406913490476,-0.0521194993124285,1,13600000000
1.7177475085680005e+18,-0.3974485067745,-0.0151283732137,-0.0809744032321,1,13600000000
1.7177475087680005e+18,-0.1030849497520499,0.1920659800456499,-0.0063076981212999,1,13600000000
1.7177475089680005e+18,0.1816002132355,0.0543700790486499,0.1306844620915,1,13600000000
1.7177475091680005e+18,0.5251382023050001,-0.277360197858,-0.0223197086547,1,13600000000
1.7177475093680005e+18,0.4357327018005,-0.30725824646,-0.0449548389742,1,13600000000
1.7177475095680005e+18,0.330140785884,0.1910395272398,0.0150589138325,1,13600000000
1.7177475097680005e+18,-0.5250866450395237,0.1596442588820476,0.030300438662619,1,13600000000
1.7177475099680005e+18,-0.49531144053,0.18727413252375,-0.097700913617,1,13600000000
1.7177475101680005e+18,-0.35243212656,-0.01071867503705,-0.0545566618955,1,13600000000
1.7177475103680005e+18,-0.0688574199075,-0.241752533796,0.0008876235453499,1,13600000000
1.7177475105680005e+18,0.1672714610085,0.091376056809,0.00090317620605,1,13600000000
1.7177475107680005e+18,0.145624545433355,0.1141041548964999,-0.0093551677922,1,13600000000
1.7177475109680005e+18,0.0703161730659999,0.03284769111805,0.00836793547515,1,13600000000
1.7177475111680005e+18,0.054819958284,0.1270845677615,0.0038325263889,1,13600000000
1.7177475113680005e+18,0.0561893284328571,0.0537690302095238,0.0152422092813047,1,13600000000
1.7177475115680005e+18,0.0494679540395,-0.01846235648285,-0.0032347080534989,1,13600000000
1.7177475117680005e+18,0.0293124139549999,-0.045595252514,-0.00546314397352,1,13600000000
1.7177475119680005e+18,0.010316970021815,-0.0338011244319999,-0.008151989197235,1,13600000000
1.7177475121680005e+18,-0.026783927524935,0.0159437250928,0.00052617273758,1,13600000000
1.7177475123680005e+18,-0.0349615292621999,2.59145857999998e-05,0.0047123872442549,1,13600000000
1.7177475125680005e+18,-0.0206443851345,-0.0208405308891499,-0.01221880163033,1,13600000000
1.7177475127680005e+18,-0.017372670716,-0.010550126821038,-0.0001219962778857,1,13600000000
1.7177475129680005e+18,-0.01417513744378,0.01623651457375,0.0095483062202999,1,13600000000
1.7177475131680005e+18,0.010677271688188,0.0151136556763,0.0266050591134999,1,13600000000
1.7177475133680005e+18,0.037048729509,0.0155452160396999,0.006745824741295,1,13600000000
1.7177475135680005e+18,0.045957763121,0.0166607749183,0.0050588018380195,1,13600000000
1.7177475137680005e+18,0.0254753965656999,0.0116513740968999,0.007258580985945,1,13600000000
1.7177475139680005e+18,0.0213607855145,0.0189950908074499,0.0071592837455,1,13600000000
1.7177475141680005e+18,-0.0017970618408571,0.0096040744378571,0.0045911030945571,1,13600000000
1.7177475143680005e+18,-0.01838904095325,-0.011867171828,-0.004440438054936,1,13600000000
1.7177475145680005e+18,-0.017936578719,-0.0054303653302794,-0.00166616070787,1,13600000000
1.7177475147680005e+18,-0.0230813095576499,-0.0113768068367649,-0.0064016176156,1,13600000000
1.7177475217680005e+18,-0.6474669337050001,0.1594069041324999,0.08077124613201,2,11800000000
1.7177475219680005e+18,-0.69706612527,-0.294654673523,-0.1021224988599999,2,11800000000
1.7177475221680005e+18,-0.24300940120445,0.0426627531699999,0.03347654901859,2,11800000000
1.7177475223680005e+18,-0.0661810964325,-0.0422080211365,0.00856458716875,2,11800000000
1.7177475225680005e+18,0.03580369317065,0.234114971198195,0.0546810756416499,2,11800000000
1.7177475227680005e+18,0.4624326556899999,0.18536956158896,0.0625053736395,2,11800000000
1.7177475229680005e+18,0.4323529402380952,-0.1911110022042857,-0.0180233873969523,2,11800000000
1.7177475231680005e+18,0.0314864257574999,0.1070346205531,0.0876957552575,2,11800000000
1.7177475233680005e+18,-0.6978324830450001,-0.0200652888965,-0.0403126206286,2,11800000000
1.7177475235680005e+18,-0.597119973595,-0.118393729539,-0.039793608851,2,11800000000
1.7177475237680005e+18,-0.0513586148080999,0.0346587857554999,0.06853707837425,2,11800000000
1.7177475239680005e+18,0.0948681314015,-0.0108481860182,-0.0136484756174999,2,11800000000
1.7177475241680005e+18,0.5228832639700001,0.5247989579999999,0.1479605136992,2,11800000000
1.7177475243680005e+18,0.6397997353857144,0.137599799118238,0.1610122420528571,2,11800000000
1.7177475245680005e+18,0.3820792961829999,-0.2070627045884999,-0.12776499833285,2,11800000000
1.7177475247680005e+18,-0.4227246947428499,-0.1326806784242,-0.0666994395119499,2,11800000000
1.7177475249680005e+18,-0.67577747104,-0.1616343449593,0.01979871958045,2,11800000000
1.7177475251680005e+18,-0.0954896286135,-0.0901375794835,0.06107868456325,2,11800000000
1.7177475253680005e+18,-0.0616702175035499,0.2727991819335,0.0468282127765,2,11800000000
1.7177475255680005e+18,0.0516031367745,-0.1333034284103999,-0.03148364173518,2,11800000000
1.7177475257680005e+18,0.5148642730047619,0.1716446820623809,0.1029227452653857,2,11800000000
1.7177475259680005e+18,0.357932686425,-0.1439367216055,0.0885196452824,2,11800000000
1.7177475261680005e+18,0.3813243627599999,-0.0751136829125,-0.0438424915125,2,11800000000
1.7177475263680005e+18,0.280481405556,-0.248685532825,-0.07465555868505,2,11800000000
1.7177475265680005e+18,-0.4666832443214999,-0.0409619113465,0.01179942360569,2,11800000000
1.7177475267680005e+18,-0.5935126289649999,-0.0020960479984,-0.037196404766,2,11800000000
1.7177475269680005e+18,-0.4787827029800001,0.2382435567695,-0.1129132401259999,2,11800000000
1.7177475271680005e+18,-0.1090642033984999,0.1785606293469999,0.0418442492572,2,11800000000
1.7177475273680005e+18,-0.1841632369004762,0.0079497231709523,0.0478364937202857,2,11800000000
1.7177475275680005e+18,0.2467676130955,0.1300208185774999,0.1610780298137999,2,11800000000
1.7177475277680005e+18,0.380318399515,-0.0659816001555,-0.01427659960545,2,11800000000
1.7177475279680005e+18,0.379431254415,-0.0904432335021999,-0.01653665582975,2,11800000000
1.7177475281680005e+18,0.2601009473285,-0.00646869363205,0.021901407361915,2,11800000000
1.7177475283680005e+18,0.0563522876294999,-0.1880918271875,-0.0079536263355499,2,11800000000
1.7177475285680005e+18,-0.72611596585,0.134081317485,-0.1191922606887999,2,11800000000
1.7177475287680005e+18,-0.335568034757619,0.0879437400061904,-0.1815311272315238,2,11800000000
1.7177475289680005e+18,-0.2358053037166,0.0067181592865,0.046359505693,2,11800000000
1.7177475291680005e+18,0.032203106577,-0.198879201709,0.156890912719,2,11800000000
1.7177475293680005e+18,0.0090888245034,-0.31485509797,-0.01626592069095,2,11800000000
1.7177475295680005e+18,0.11360811135485,-0.1041845787841199,-0.144365880265,2,11800000000
1.7177475297680005e+18,0.1276361767406,-0.0877474609927,-0.02058018997695,2,11800000000
1.7177475299680005e+18,0.0723385346155,-0.0522865165975,-0.0794953673143,2,11800000000
1.7177475301680005e+18,0.0872064527280952,0.2583490340523809,0.0578426815600904,2,11800000000
1.7177475303680005e+18,0.0521472288288999,0.1702764321185,0.0950441449964999,2,11800000000
1.7177475305680005e+18,0.0001859230122199,0.0664510156025,0.03172371368844,2,11800000000
1.7177475307680005e+18,-0.0214482530959,-0.02875948836015,-0.0207198259544,2,11800000000
1.7177475309680005e+18,0.02110708607125,-0.028199913632,-0.026374147553,2,11800000000
1.7177475311680005e+18,0.09691653159,-0.0285968266425,0.0088793595907999,2,11800000000
1.7177475313680005e+18,0.080912839436,-0.0257967818411799,-0.018943507038455,2,11800000000
1.7177475315680005e+18,0.0370690027245,-0.00024603721705,-0.000209847255648,2,11800000000
1.7177475317680005e+18,0.006530569899619,0.0118223137797142,0.0018939026415904,2,11800000000
1.7177475319680005e+18,0.01083978271638,0.0015390313579899,-0.0007179806940249,2,11800000000
1.7177475321680005e+18,0.040743550705,0.00727203494148,0.00329913219865,2,11800000000
1.7177475323680005e+18,0.0456766610975,0.004120124439955,-0.00476141787387,2,11800000000
1.7177475325680005e+18,0.02387088704955,0.0287918608165,0.0009952471997299,2,11800000000
1.7177475327680005e+18,0.0050169133462999,-0.00424017116983,-0.003548125841135,2,11800000000
1.7177475329680005e+18,-0.005919615528365,0.00543427263665,0.00015134529669,2,11800000000
1.7177475331680005e+18,-0.0135301164530571,-0.0011959516754747,0.0016336840401142,2,11800000000
1.7177475333680005e+18,0.05829331809875,-0.0042764226908345,8.875495984499992e-05,2,11800000000
1.7177475335680005e+18,-0.0869322621131,-0.020451794319415,0.0069381656474,2,11800000000
1.7177475403680005e+18,-0.3704374334488809,0.4799054375423809,0.072155402443,3,11800000000
1.7177475405680005e+18,-0.0765886274233,-0.027365183267,0.1359487955445,3,11800000000
1.7177475407680005e+18,0.420034888751,0.0784957237185,-0.1993101899088499,3,11800000000
1.7177475409680005e+18,0.643539350465,-0.3429073780755,-0.0451182348317499,3,11800000000
1.7177475411680005e+18,-0.0118404369323499,-0.4296012356799999,-0.04995036194715,3,11800000000
1.7177475413680005e+18,0.04213968394295,-0.0439460228215,0.09921883233625,3,11800000000
1.7177475415680005e+18,-0.8154514193500001,0.0809492537264,0.0667964541570499,3,11800000000
1.7177475417680005e+18,-0.3996297477365001,-0.397011340035,0.0554298717120999,3,11800000000
1.7177475419680005e+18,-0.1351975356742857,-0.3103859004894477,-0.0935852711471428,3,11800000000
1.7177475421680005e+18,0.1234999880219999,0.2596662662975,0.068605136847345,3,11800000000
1.7177475423680005e+18,0.1300557546351,-0.1121925257183,0.0650467448131999,3,11800000000
1.7177475425680005e+18,0.5315300658350001,0.1456916013709999,-0.09742795677895,3,11800000000
1.7177475427680005e+18,0.4280664749464999,0.14942309441234,-0.0027108474595999,3,11800000000
1.7177475429680005e+18,0.4065975850384999,0.3244329707725499,0.0281601449464999,3,11800000000
1.7177475431680005e+18,-0.5591831296700001,0.05051128336405,0.1108199449259999,3,11800000000
1.7177475433680005e+18,-0.5270046953714286,-0.2236664620487618,-0.1271203154166666,3,11800000000
1.7177475435680005e+18,-0.1752476293535,0.1222575541046,-0.0565863217534,3,11800000000
1.7177475437680005e+18,0.1225105052895,0.1114513374855,0.0239158193926999,3,11800000000
1.7177475439680005e+18,0.285833886644,0.1491339206023499,-0.014759716460795,3,11800000000
1.7177475441680005e+18,0.250717745401,-0.3349155224949999,-0.1488301451745,3,11800000000
1.7177475443680005e+18,0.391325823975,0.09201939905485,-0.0287422474337,3,11800000000
1.7177475445680005e+18,0.3552609987564999,-0.02117706069115,-0.0374143953689,3,11800000000
1.7177475447680005e+18,-0.0422687211775714,-0.071985781588,0.0413896743672857,3,11800000000
1.7177475449680005e+18,-0.72468934059,0.0764107052563499,0.1334457614822,3,11800000000
1.7177475451680005e+18,-0.2428783076819999,0.0410059193775999,0.0177376395774349,3,11800000000
1.7177475453680005e+18,-0.0492427413435,-0.1231110256604,0.1093785397547,3,11800000000
1.7177475455680005e+18,-0.0282217979505,0.336117371542,0.233698154985,3,11800000000
1.7177475457680005e+18,0.3805375307749999,0.036104228848,-0.0033654191507999,3,11800000000
1.7177475459680005e+18,0.32282112465,0.0381087636584999,-0.0149853264357999,3,11800000000
1.7177475461680005e+18,0.3900674406379999,-0.10094950541935,0.0194598963717999,3,11800000000
1.7177475463680005e+18,0.3228050982066666,-0.1335350139209523,-0.2021967965566666,3,11800000000
1.7177475465680005e+18,-0.0950490280995,-0.0136605269228,0.0172023446759499,3,11800000000
1.7177475467680005e+18,-0.71163127721,0.1542252713864999,0.0288946579109255,3,11800000000
1.7177475469680005e+18,-0.4916975185400001,0.0936954509944999,0.00568580607975,3,11800000000
1.7177475471680005e+18,-0.07266593894525,-0.1553854131356499,-0.0251602972872999,3,11800000000
1.7177475473680005e+18,-0.17939387419061,-0.2022875953525,-0.025070033086045,3,11800000000
1.7177475475680005e+18,0.279462531586,0.4727628502875,0.1396573288366,3,11800000000
1.7177475477680005e+18,0.3191028184161905,0.1446859349627143,0.0144565705077142,3,11800000000
1.7177475479680005e+18,0.351918379039,-0.0571339007424,0.071995773362,3,11800000000
1.7177475481680005e+18,0.1733393430755,-0.04151265693285,-0.0110546742635,3,11800000000
1.7177475483680005e+18,-0.0987487915889999,-0.306095563242,-0.108514522978005,3,11800000000
1.7177475485680005e+18,-0.548573933545,0.2167182998726499,-0.00011735786315,3,11800000000
1.7177475487680005e+18,-0.6470823183650001,-0.0940387006839999,-0.03908794275345,3,11800000000
1.7177475489680005e+18,-0.040491881594,-0.2178458953239999,-0.0822974372205,3,11800000000
1.7177475491680005e+18,0.438666460662,-0.4275659417316191,-0.0274761006473576,3,11800000000
1.7177475493680005e+18,-0.0953828773738049,-0.0959386950274999,-0.0720696540614499,3,11800000000
1.7177475495680005e+18,0.266322826966,0.0565853584565,0.07408167684175,3,11800000000
1.7177475497680005e+18,0.0890012548309999,0.22007021158,0.07320521850755,3,11800000000
1.7177475499680005e+18,0.0760127050809999,0.0617159238482539,-0.030693545518,3,11800000000
1.7177475501680005e+18,0.0695581384034999,-0.0365318945139,0.00099508848543,3,11800000000
1.7177475503680005e+18,0.0308989762324999,-0.01027010290345,0.0008937560021749,3,11800000000
1.7177475505680005e+18,0.0295663494609523,0.0088823767315714,0.0053038804103952,3,11800000000
1.7177475507680005e+18,-0.013791800110265,0.0315713833786499,-0.00683666674875,3,11800000000
1.7177475509680005e+18,-0.0295298635495,0.0701709371065,-0.004763819567795,3,11800000000
1.7177475511680005e+18,-0.04284398464855,0.0834119336655,-0.0007225171488,3,11800000000
1.7177475513680005e+18,-0.0375308397102,0.0297966193059,0.0011088888139999,3,11800000000
1.7177475515680005e+18,-0.03219243038895,0.004082244472585,0.00973088437426,3,11800000000
1.7177475517680005e+18,-0.02358588484375,-0.0295354888416499,-0.0069477063945,3,11800000000
1.7177475519680005e+18,0.1108570074133333,-0.02895950029,-0.014416724753,3,11800000000
1.7177475521680005e+18,,,,3,11800000000
