Timestamps,Acc_X,Acc_Y,Acc_Z
1.7176898901674038e+18,-0.8774902496456999,1.98919844055,9.78970220925
1.7176898903674038e+18,-1.665548973065,1.7815277938,9.3029668808
1.7176898905674038e+18,-0.9230554961834999,1.7731676789200002,9.39354352565
1.7176898907674038e+18,-0.755853195225,1.7627268906300002,6.8027685702500005
1.7176898909674038e+18,-0.8207657090025,0.5820346526555,9.429416428049997
1.7176898911674038e+18,-1.7082851027850001,-1.671656272895,11.9076554029
1.7176898913674038e+18,-1.9745990632210526,-3.1663103606842107,13.838588296842108
1.7176898915674038e+18,-1.5562013624850002,-1.4150673522550001,10.512279602400001
1.7176898917674038e+18,-0.687183494548,1.70107010645,5.954340385449999
1.7176898919674038e+18,0.064126647905,1.4400429152199998,4.85076029225
1.7176898921674038e+18,-1.662727340755,-1.1091036072,12.0962182845
1.7176898923674038e+18,-1.3681773606,-2.4005355607,14.6839321055
1.7176898925674038e+18,-1.577636787325,-1.2821886749755,10.962640569650002
1.7176898927674038e+18,-0.8314499383,1.3510825147368422,6.707709141789474
1.7176898929674038e+18,-0.0050894165139500295,1.9732266541099999,3.9798338927500003
1.7176898931674038e+18,-1.66877476507,-1.40282281498,11.213705978450001
1.7176898933674038e+18,-1.8628237380499997,-2.7740463409000005,13.530213775499998
1.7176898935674038e+18,-1.7763710174200003,-1.8289866027750001,11.830011863600001
1.7176898937674038e+18,-0.5821169815253501,0.256529045103855,9.963401001
1.7176898939674038e+18,0.045602668758499984,2.2832170256,4.40533905025
1.7176898941674038e+18,-0.8670758538642104,0.881540511283158,7.492172578315789
1.7176898943674038e+18,-1.637938888585,-2.1309985655499997,11.114701858199998
1.7176898945674038e+18,-1.378715446405,-3.3325723800500002,13.063312202499997
1.7176898947674038e+18,-1.593294227565,-2.00063465885,11.657203720849997
1.7176898949674038e+18,-1.099493591455,-0.56728282931,9.819348060900001
1.7176898951674038e+18,0.06084098054099999,1.8094148026400003,4.645095474250001
1.7176898953674038e+18,-0.8607810492473684,0.8512324845005262,7.280221228578947
1.7176898955674038e+18,-1.7904866638450003,-1.85360291288,11.1945682754
1.7176898957674038e+18,-1.3230312423980002,-3.68187849435,13.207133124999999
1.7176898959674038e+18,-1.6962576141549999,-2.258488449,11.41958036135
1.7176898961674038e+18,-1.01415605163,-0.6655759277600001,9.667952888000002
1.7176898963674038e+18,-0.247659988404,1.98187117775,4.4398048782499995
1.7176898965674038e+18,-0.9966649245960001,0.31107561489550006,8.0212946318
1.7176898967674038e+18,-1.8079955171263156,-2.6497660988842107,11.204460731157896
1.7176898969674038e+18,-1.42853185273,-3.450766594,12.3888672185
1.7176898971674038e+18,-1.5651153260000001,-2.5510176314500006,11.27327460625
1.7176898973674038e+18,-1.0796298981150003,-1.537991729705,9.906055251949997
1.7176898975674038e+18,-0.9465192031749998,-0.003839515702500007,9.176884071649999
1.7176898977674038e+18,-0.4301679611199999,2.2086495894999993,5.0712517776
1.7176898979674038e+18,-0.8528365173000001,-0.06685846710099999,8.7549340215
1.7176898981674038e+18,-1.3631442741368422,-1.8350812972526314,10.792525250052634
1.7176898983674038e+18,-1.109200904885,-1.93800489805,10.7622672501
1.7176898985674038e+18,-1.181710121131,-1.404259826595,10.5347254266
1.7176898987674038e+18,-1.6350424117949998,-0.900400108365,10.1498607543
1.7176898989674038e+18,-0.6919061737071501,-0.5732778625650001,9.8383435597
1.7176898991674038e+18,-0.8771160277650001,-0.278248878479,9.77084891535
1.7176898993674038e+18,-1.131103122110526,-0.21333006205789476,9.804185775263157
1.7176898995674038e+18,-1.160843513495,-0.25333319092,9.8091692279
1.7176898997674038e+18,-1.1420276411999999,-0.290493415824,9.8044465485
1.7176898999674038e+18,-1.134573142975,-0.32245944213999994,9.785031921450003
1.7176899001674038e+18,-1.13436357875,-0.0945583648711,9.78098284155
1.7176899003674038e+18,-1.1298130417349999,-0.17080231475000002,9.809079414600001
1.7176899005674038e+18,-0.9370962982399998,-0.2155293045085,9.766717506500001
1.7176899007674038e+18,-1.2951383249473685,-0.09727403339278948,9.802933116947369
1.7176899009674038e+18,-1.1265273742800002,-0.17099691009449997,9.802051529150003
1.7176899011674038e+18,-1.2748389587499998,-0.128290718076395,9.7568305664
1.7176899013674038e+18,-1.385616096555,-0.1059496765165,9.755618087799999
1.7176899015674038e+18,-1.427252014055,-0.17411043549100003,9.751112457249999
1.7176899017674038e+18,-1.4606625367,-0.1837653579755,9.74314901725
1.7176899019674038e+18,-1.3227468337500001,-0.16655863952699998,9.782083053500001
1.7176899021674038e+18,-1.291514282157895,-0.2228313566531579,9.815893008473683
1.7176899023674038e+18,-1.39881115715,-0.18113083647550002,9.7420413207
1.7176899025674038e+18,-1.3301115188000001,-0.163452598581,9.771702140799999
1.7176899027674038e+18,-1.337341484015,-0.1615515518125,9.770444755749999
1.7176899029674038e+18,-1.3155393218999998,-0.145939018252,9.700592514049998
1.7176899031674038e+18,-1.333816314725,-0.0952020263645,9.748118682799998
1.7176899033674038e+18,-0.9163076862631576,-0.3679979023210526,9.807171670894737
1.7176899035674038e+18,-1.1464210051749997,-0.47540389252,9.860497489599998
1.7176899037674038e+18,-0.79047619629,-0.1155447235194,9.80312928775
1.7176899039674038e+18,-0.956907600405,-0.607414375325,9.817611671799998
1.7176899041674038e+18,-1.02563717655,-0.9037905578600001,9.856620551899999
1.7176899043674038e+18,-1.1321407013999998,-0.2555111617605,9.751314536999999
1.7176899045674038e+18,-1.0433453521399998,-0.147353576642,9.7770385442
1.7176899047674038e+18,-0.8248163645,-0.6094142953894736,9.81705112636842
1.7176899049674038e+18,-0.7814200286900002,-0.265869621275,9.7330076065
1.7176899051674038e+18,-0.88617219546,-0.54850437927,9.792486419700001
1.7176899053674038e+18,-0.8864640884250001,-0.6943011932400001,9.87605014785
1.7176899055674038e+18,-0.900415077235,-0.6607634353599999,9.7789994657
1.7176899057674038e+18,-0.8960666198549999,-0.69205586243,9.80131056975
1.7176899059674038e+18,-0.917105369545,-0.71400771332,9.765684654149998
1.7176899061674038e+18,-0.9140072069526317,-0.7232643850210527,9.806423227631582
1.7176899063674038e+18,-0.902099075365,-0.74306229402,9.79360160065
1.7176899065674038e+18,-0.978208305335,-0.725660980225,9.809094383249999
1.7176899067674038e+18,-0.9008342055949999,-0.732179924015,9.7542559205
1.7176899069674038e+18,-0.9093889160199998,-0.74360865784,9.77990508275
1.7176899071674038e+18,-0.9410031738400001,-0.7822208633499999,9.7642401581
1.7176899073674038e+18,-0.9623251504105262,-0.8414081774368423,9.84250608736842
1.7176899075674038e+18,-0.9372983780150002,-0.788620056155,9.75646382835
1.7176899077674038e+18,-1.001125648545,-0.7855214996300001,9.774269302449998
1.7176899079674038e+18,-0.9342147903350002,-0.8319624252349997,9.8079118423
1.7176899081674038e+18,-0.9960437164600002,-0.8246426467900001,9.757631401150002
1.7176899083674038e+18,-0.9529633026400001,-0.8662785644500002,9.7863940886
1.7176899085674038e+18,-0.98024407187,-0.85193090057,9.78404397585
1.7176899087674038e+18,-0.9656025454631579,-0.8404076265,9.764014049210527
1.7176899089674038e+18,-0.959759170505,-0.8821231155500001,9.772285926799999
1.7176899091674038e+18,-1.0152936858850001,-0.88998177338,9.752796455399999
1.7176899093674038e+18,-0.9770407333300002,-0.91102052309,9.779935020400002
1.7176899095674038e+18,-0.9465940474949998,-0.97146482851,9.788399917500001
1.7176899097674038e+18,-0.9913060684550002,-0.9180484085200001,9.817327262850002
1.7176899099674038e+18,-0.9462946701150001,-0.832201927195,9.798466483899999
1.7176899101674038e+18,-0.9494204069789474,-0.7415815574315789,9.80484755668421
1.7176899103674038e+18,-0.951054771415,-0.65284490205,9.799604118399998
1.7176899105674038e+18,-0.944700485205,-0.47407914734,9.79672261045
1.7176899107674038e+18,-0.8957298202599999,-0.34530942535000003,9.7131364287
1.7176899109674038e+18,-0.8280256118650001,-0.43849813842999996,9.8029047549
1.7176899111674038e+18,-0.9621691589449999,-0.5146896972649999,9.777315467700003
1.7176899113674038e+18,-0.8198530016526316,-0.547214692768421,9.896433418578948
1.7176899115674038e+18,-0.96680950924,-0.55809194184,9.75977943415
1.7176899117674038e+18,-0.8925414505449998,-0.59454862977,9.80618293755
1.7176899119674038e+18,-0.929798973085,-0.5728138275099999,9.817551796450001
1.7176899121674038e+18,-0.940801094065,-0.66152684783,9.769239761300001
1.7176899123674038e+18,-0.9353299713150001,-0.6561081161500001,9.790046493350001
1.7176899125674038e+18,-0.91215067291,-0.6599551162650001,9.804858192400001
1.7176899127674038e+18,-0.9414396346526315,-0.7042145257315789,9.769339816421052
1.7176899129674038e+18,-0.9238712997099998,-0.7504344635,9.829639160000001
1.7176899131674038e+18,-0.9917775878899999,-0.6884483642599999,9.746060462950002
1.7176899133674038e+18,-0.9818307724249999,-0.7263345794699999,9.80625778155
1.7176899135674038e+18,-0.9550813980150001,-0.6788608016950002,9.784552917450002
1.7176899137674038e+18,-0.79391903692,-0.6741306381185,9.756523704550002
1.7176899139674038e+18,-1.440985954245,-0.8038433991049999,9.86239105225
1.7176899141674038e+18,-0.929220308005263,-0.7851961236473685,9.711977522894738
1.7176899143674038e+18,-0.9100550308749998,-0.75739498901,9.704080260850002
1.7176899145674038e+18,-0.890730216995,-0.8326509933449999,9.799207443299998
1.7176899147674038e+18,-1.143734092685,-1.01151404567,9.787890976099998
1.7176899149674038e+18,-0.900078277555,-0.916147361765,9.8511494292
1.7176899151674038e+18,-1.035262161245,-0.78490029144,9.78692548375
1.7176899153674038e+18,-0.9856135639684211,-0.6294174354894736,9.80940912336842
1.7176899155674038e+18,-0.937657630935,-0.5380486221299999,9.8063251422
1.7176899157674038e+18,-1.0033485260350001,-0.379752799985,9.752646766749999
1.7176899159674038e+18,-0.9480235748549999,-0.357314460755,9.7440621185
1.7176899161674038e+18,-0.9648560714600001,-0.4084855499200001,9.817963439849999
1.7176899163674038e+18,-0.9599687347750001,-0.45200006103499996,9.810583786
1.7176899165674038e+18,-0.9491911468799998,-0.465105308535,9.808585441600002
1.7176899167674038e+18,-0.9294566586105264,-0.4644053168105264,9.792557324842104
1.7176899169674038e+18,-1.00554146576,-0.4915927276599999,9.80157252515
1.7176899171674038e+18,-0.9632020111600003,-0.5700146484299999,9.8286212768
1.7176899173674038e+18,-0.9385857010099998,-0.5484744415250001,9.7887367172
1.7176899175674038e+18,-0.9939331054850001,-0.5346881103500001,9.79678997045
1.7176899177674038e+18,-0.9250912628150001,-0.649768798815,9.795779571549998
1.7176899179674038e+18,-0.9728719024950001,-0.6508166198700001,9.76465180205
1.7176899181674038e+18,-0.9374531876631579,-0.6398089840473683,9.775729161263158
1.7176899183674038e+18,-0.94845018768,-0.8563392333949998,9.816945556600002
1.7176899185674038e+18,-0.9152492294249999,-0.8084089050350001,9.838665389900001
1.7176899187674038e+18,-0.9684560851749999,-0.8428073730300001,9.867495437749998
1.7176899189674038e+18,-0.8886196060100001,-0.6641613693300001,9.723045822149999
1.7176899191674038e+18,-0.797137344355,-0.5247188415549998,9.836000930600001
1.7176899193674038e+18,-0.8989753079999999,-0.3872762338736842,9.799316952
1.7176899195674038e+18,-0.5806051254449999,-0.2616783371015,9.701752601199999
1.7176899197674038e+18,-0.7264618148800001,-0.40270756529499996,9.78268929295
1.7176899199674038e+18,-0.7713684310650001,-0.6214851150499999,9.8633640293
1.7176899201674038e+18,-0.70961434937,-0.7567438430700001,9.8694788133
1.7176899203674038e+18,-0.7492818603549999,-0.7754998397800001,9.85926255795
1.7176899205674038e+18,-0.762214965825,-0.7526348877,9.8276483001
1.7176899207674038e+18,-0.7994401871473683,-0.6419834096947369,9.826804528421054
1.7176899209674038e+18,-0.846579528805,-0.49222142027999993,9.790465621900001
1.7176899211674038e+18,-0.8336164855949999,-0.33402289582000005,9.678341285750001
1.7176899213674038e+18,-0.9104217681750001,-0.5150863723700001,9.774186973450002
1.7176899215674038e+18,-0.8824673996150001,-0.6048546981899999,9.764285064849998
1.7176899217674038e+18,-0.8972341918800002,-0.8584722977150001,9.882980735199999
1.7176899219674038e+18,-0.9311087493799999,-0.82122974396,9.727678688000001
1.7176899221674038e+18,-0.9242017967210527,-0.947773831,9.914868766631578
1.7176899223674038e+18,-1.0147473220849998,-0.793350219735,9.82365909645
1.7176899225674038e+18,-0.92530831151,-0.663570098885,9.808203734949998
1.7176899227674038e+18,-1.00437389375,-0.596704147325,9.807238243099999
1.7176899229674038e+18,-0.9373582535199999,-0.50492250824,9.685885597249998
1.7176899231674038e+18,-0.9101747818450001,-0.572177650455,9.800053184800001
1.7176899233674038e+18,-1.0189862701473684,-0.6238001692842106,9.750266322105263
1.7176899235674038e+18,-0.9364002456749999,-0.7177125091650001,9.82666783915
1.7176899237674038e+18,-1.01395397188,-0.783530639655,9.795674789199998
1.7176899239674038e+18,-0.9059760132200001,-0.768554283135,9.865826408500002
1.7176899241674038e+18,-0.9253457336800001,-0.61852127838,9.811332229600001
1.7176899243674038e+18,-0.8475450210499998,-0.462964759825,9.797530929299999
1.7176899245674038e+18,-0.77774517059,-0.32645613099000004,9.742213462749998
1.7176899247674038e+18,-0.7384144592315789,-0.40073246203157903,9.806817145000002
1.7176899249674038e+18,-0.7463704147400001,-0.44991938782499996,9.831368064950002
1.7176899251674038e+18,-0.696516586295,-0.48416816711,9.889073066649999
1.7176899253674038e+18,-1.2798759842349998,-0.48244674684095,9.5742402652
1.7176899255674038e+18,-1.2494218139,-0.67255142211,9.798503906
1.7176899257674038e+18,-0.7969277801350001,-0.8270975417950002,9.8321314775
1.7176899259674038e+18,-0.91495733643,-0.88305118562,9.828127303950001
1.7176899261674038e+18,-0.9281488518789475,-0.8550928778421053,9.857183460947368
1.7176899263674038e+18,-0.858891426075,-0.7406523055900001,9.86248086585
1.7176899265674038e+18,-0.963396606415,-0.5239629135049999,9.69452263645
1.7176899267674038e+18,-0.9217532043200001,-0.4775294723600001,9.78941031675
1.7176899269674038e+18,-0.8721613311699998,-0.6545214157049999,9.83083666985
1.7176899271674038e+18,-0.99358882145,-0.65968567658,9.78556331575
1.7176899273674038e+18,-0.9797363121000001,-0.7241231255736843,9.72540223763158
1.7176899275674038e+18,-1.05014870448,-0.643279792775,9.776724197450001
1.7176899277674038e+18,-0.9446331252899999,-0.76414595032,9.790877265199999
1.7176899279674038e+18,-1.003797592165,-0.7391703872650001,9.799866073649998
1.7176899281674038e+18,-0.9352251892250003,-0.846691795345,9.85141886925
1.7176899283674038e+18,-0.9286463699199998,-0.738945854185,9.81923579415
1.7176899285674038e+18,-0.9353374557500003,-0.6384747848550001,9.8159501265
1.7176899287674038e+18,-0.8383434978368421,-0.49883372255789465,9.742970966526316
1.7176899289674038e+18,-0.80763800812,-0.513402374265,9.75820770285
1.7176899291674038e+18,-0.8487500152499999,-0.650831588755,9.826810043199998
1.7176899293674038e+18,-0.793911552425,-0.6042185211100002,9.824766792199998
1.7176899295674038e+18,-0.8637114029199999,-0.7087311859150001,9.776447273150001
1.7176899297674038e+18,-0.8428073730250001,-0.680896568305,9.7982419511
1.7176899299674038e+18,-0.896440841655,-0.6462885360650001,9.75335778805
1.7176899301674038e+18,-0.8394070755789474,-0.8364763279999998,9.82793901131579
1.7176899303674038e+18,-0.856623641975,-0.86636837768,9.79437998215
1.7176899305674038e+18,-0.884540588365,-0.785094886785,9.78715001645
1.7176899307674038e+18,-0.9714274063199999,-0.9502389679350001,9.810104781900002
1.7176899309674038e+18,-0.8977506179950001,-0.8593255233700001,9.7897845382
1.7176899311674038e+18,-0.91435109712,-0.8473055191099998,9.8205156326
1.7176899313674038e+18,-0.8950440095842106,-0.7861336477210525,9.831933336894735
1.7176899315674038e+18,-0.9165140991100001,-0.6600224762,9.788923828049999
1.7176899317674038e+18,-0.9407337341299998,-0.57110737611,9.719213790949999
1.7176899319674038e+18,-0.9285415878200001,-0.5887032852149999,9.71967782595
1.7176899321674038e+18,-0.992136840825,-0.74502321625,9.803144255750002
1.7176899323674038e+18,-0.96381573487,-0.8403449935574999,9.836420058249999
1.7176899325674038e+18,-0.923541984575,-0.80971119687,9.905052337499999
1.7176899327674038e+18,-0.9603398052263156,-0.5484043241736841,9.754788497105265
1.7176899329674038e+18,-0.9431661758649998,-0.5714965667750002,9.7639033586
1.7176899331674038e+18,-0.9077797622550001,-0.6143599319549999,9.9202307742
1.7176899333674038e+18,-1.33265622709,-0.45350443268999996,9.642984809949999
1.7176899335674038e+18,-1.2675566024500005,-0.5130056991699999,9.676440239049999
1.7176899337674038e+18,-1.0450368347099999,-0.60468255616,9.9252827682
1.7176899339674038e+18,-1.00792151641,-0.4974081344559999,9.795278114199998
1.7176899341674038e+18,-0.6121953542442632,-0.2495862458926316,9.78307178668421
1.7176899343674038e+18,-1.0096653899849999,-0.26406587219,9.80721578975
1.7176899345674038e+18,-0.66166156769,-0.24748784635899995,9.8868501892
1.7176899347674038e+18,-1.1034902800800002,-0.15947087860299997,9.717110664449999
1.7176899349674038e+18,-0.5442906418069999,-0.13570030976295,9.8448550187
1.7176899351674038e+18,-0.4676425323390001,-0.1042058029091,9.873969475250002
1.7176899353674038e+18,-1.087488556063158,-0.3658234766947368,9.814537931789474
1.7176899355674038e+18,-1.30168563085,-0.32587234496499995,9.71167696385
1.7176899357674038e+18,-1.2201950912000001,-0.37236566162500007,9.80560663605
1.7176899359674038e+18,-1.11216474145,-0.44077340699,9.803091865350002
1.7176899361674038e+18,-1.3071717224000001,-0.48591952514000003,9.807994171250002
1.7176899363674038e+18,-1.2540397110499997,-0.487902900695,9.76918737025
1.7176899365674038e+18,-1.23899599455,-0.39709423828,9.77920903025
1.7176899367674038e+18,-1.2222477962105263,-0.5499957516315789,9.820549115578947
1.7176899369674038e+18,-1.029207252485,-0.15173945617799997,9.79329473895
1.7176899371674038e+18,-0.73758368685,-0.4933141479449999,9.7585445028
1.7176899373674038e+18,-0.27509044646124997,-0.48799271393500004,9.97649876385
1.7176899375674038e+18,-0.613731239333,-0.08270301819,9.800300170449999
1.7176899377674038e+18,-0.299033157337,0.395372817985,9.75966716755
1.7176899379674038e+18,-1.232641708409,-0.8139473876779999,10.01879331145
1.7176899381674038e+18,-0.7456625446163156,-0.754557205994737,9.699647899947369
1.7176899383674038e+18,-0.5675447845224999,-0.799786834715,10.03070853405
1.7176899385674038e+18,-1.049722091648,-1.02604133608,11.705044236500001
1.7176899387674038e+18,-1.2547881545700001,-0.23113435364155005,10.851840982
1.7176899389674038e+18,-1.069540878315,0.9739421768804999,9.41104213795
1.7176899391674038e+18,0.014804214481500011,1.22686372373,3.1604752577999995
1.7176899393674038e+18,-0.6338529486715789,-0.0061451158847368095,9.648659193894737
1.7176899395674038e+18,-1.7766479415799996,-2.2544767914999997,13.473010231500002
1.7176899397674038e+18,-1.291641517605,-2.1341644821499997,12.965962143000002
1.7176899399674038e+18,-0.6084996185655001,-0.257981025665,9.7511274264
1.7176899401674038e+18,-0.27088419344500003,2.0256476441099998,3.4374742354500007
1.7176899403674038e+18,-0.49702642819610005,-0.17660275267665,8.6523448558
1.7176899405674038e+18,-1.4785727919925002,-3.6563415984,14.482705558500001
1.7176899407674038e+18,-1.9140381581526313,-1.819466400005263,12.168101564999999
1.7176899409674038e+18,-0.7991356887700001,0.0644185409569,9.2404568707
1.7176899411674038e+18,-0.318589988741,1.7184564513500002,4.381486152599999
1.7176899413674038e+18,-0.2007250900325,-0.09755213929449999,8.785867195399998
1.7176899415674038e+18,-1.5465539245414996,-2.6826987990499997,12.489952011000002
1.7176899417674038e+18,-1.46646297453086,-2.4436010054,13.1670839065
1.7176899419674038e+18,-1.625926368615,-1.1418330458954997,9.794761688200001
1.7176899421674038e+18,0.23819414647000003,0.38288799082394737,7.008622861999999
1.7176899423674038e+18,-1.0955792312415,1.2002565535385001,9.0003037717
1.7176899425674038e+18,-0.8286692733750002,0.7391254806755001,9.86513784005
1.7176899427674038e+18,-0.97510226439,0.5997727661199999,10.16246454585
1.7176899429674038e+18,-0.5707930297750001,0.7416103134595,7.88108869165
1.7176899431674038e+18,-0.5474565581791,-0.07978408823149999,7.246909973150001
1.7176899433674038e+18,-0.9901278605894738,-3.7235384408947367,13.394430349999999
1.7176899435674038e+18,-1.375429779075,-3.8898560028500007,12.937468895
1.7176899437674038e+18,-0.69516190341875,-1.6661776656499998,9.617956855150002
1.7176899439674038e+18,-0.21011057278499998,1.146855102525,6.4623015747500006
1.7176899441674038e+18,-0.25131239319800003,0.857170005861,5.33967359155
1.7176899443674038e+18,-1.22965541843,-2.73172933957,12.2197563855
1.7176899445674038e+18,-0.8470360794180001,-3.1393167572499996,11.2991482999
1.7176899447674038e+18,-0.9566291005421051,-2.0364126265789473,9.448793238315789
1.7176899449674038e+18,-0.8090974731299999,-1.4922393723,9.809161743099999
1.7176899451674038e+18,-1.26555077368,-1.0224712601000001,9.9619864424
1.7176899453674038e+18,-1.03586091608,-0.400349967927,9.851396416250001
1.7176899455674038e+18,-0.43996508788905003,0.08657995605164998,9.7779441605
1.7176899457674038e+18,-0.6683601379449999,-0.198419883731,9.830507354549999
1.7176899459674038e+18,-0.718640579225,-0.38709503173000004,9.828419197150001
1.7176899461674038e+18,-1.1523037719,-0.26911668476263156,9.79393603668421
1.7176899463674038e+18,-1.09226362619,-0.33385823822000005,9.767608154249999
1.7176899465674038e+18,-0.9890457687099999,-0.31938333893500004,9.818839119
1.7176899467674038e+18,-1.086515579235,-0.36518808746,9.77526473245
1.7176899469674038e+18,-1.1246637496349998,-0.33475637054500007,9.787651474099999
1.7176899471674038e+18,-0.993603790305,-0.346716499315,9.79226937165
1.7176899473674038e+18,-0.702840934744,-0.2873724060095,9.78976956965
1.7176899475674038e+18,-0.10690925999473684,-0.2200266627331579,9.828931683842105
1.7176899477674038e+18,-0.9534048843449998,-0.39337447358,9.8678621754
1.7176899479674038e+18,-0.034817596445,-0.9287062454399999,9.8303876039
1.7176899481674038e+18,-0.55413267517775,-0.7944279785149999,9.868079223349998
1.7176899483674038e+18,-1.207209594765,-0.2838172988925,9.7401477584
1.7176899485674038e+18,-1.0812839584,-0.4605697402950001,9.791872695799999
1.7176899487674038e+18,-0.8015752210157894,-0.5393757308157895,9.778281747842106
1.7176899489674038e+18,-0.8846528549249999,-0.43588607024500003,9.58093883535
1.7176899491674038e+18,-0.8363932113399999,-0.95202026372,9.8869025796
1.7176899493674038e+18,-0.8465346221900001,-1.0193053436200004,9.781970787099999
1.7176899495674038e+18,-0.877856987,-1.1217448197,9.787217376849998
1.7176899497674038e+18,-0.830607742305,-1.1626846848499999,9.772914619500002
1.7176899499674038e+18,-0.8556731185950002,-1.1701316985499999,9.752961112900001
1.7176899501674038e+18,-0.8489320052263158,-1.1875357698421052,9.776312159473685
1.7176899503674038e+18,-0.86889811706,-1.082429077195,9.7476845855
1.7176899505674038e+18,-0.96663736722,-1.03471579753,9.749368583699999
1.7176899507674038e+18,-0.9010362854249999,-1.01932031247,9.7552887726
1.7176899509674038e+18,-0.96008848571,-0.916835929865,9.6806090697
1.7176899511674038e+18,-0.9244401168999999,-1.0497669983499998,9.75840978245
1.7176899513674038e+18,-0.9043144683750001,-1.1103086013500003,9.7980623246
1.7176899515674038e+18,-0.9235636500368422,-1.0951463156842103,9.712962317263157
1.7176899517674038e+18,-0.9111851806600001,-1.10288404085,9.7712006836
1.7176899519674038e+18,-0.91970246887,-1.0800639952500002,9.712545158350002
1.7176899521674038e+18,-0.9070238342449997,-1.1741134186499997,9.754989395150002
1.7176899523674038e+18,-0.9153689804,-1.1882140962,9.7707067108
1.7176899525674038e+18,-0.91839269257,-1.1532318420999998,9.756823082
1.7176899527674038e+18,-0.9227521795894736,-1.0535801214684208,9.774610435105263
1.7176899529674038e+18,-0.9334139556799999,-0.90846084597,9.737647956850001
1.7176899531674038e+18,-0.9462871856500001,-0.8169935531649999,9.631481231799999
1.7176899533674038e+18,-0.91245753478,-1.048270111025,9.7826369018
1.7176899535674038e+18,-0.9242679748750001,-1.14135404205,9.748927001899999
1.7176899537674038e+18,-0.927860504185,-1.1805200958,9.763753669749999
1.7176899539674038e+18,-0.9095760269100002,-1.1988794174500002,9.79842906185
1.7176899541674038e+18,-0.9314183686578946,-1.089828427,9.758853727736842
1.7176899543674038e+18,-0.910189750675,-1.0195298766899998,9.77849052425
1.7176899545674038e+18,-0.9400900726349999,-0.859033630375,9.6792992935
1.7176899547674038e+18,-0.95480447387,-0.8798029403549998,9.685915534950002
1.7176899549674038e+18,-0.9040749664350001,-1.002038749725,9.772383224549998
1.7176899551674038e+18,-0.9126895523049999,-1.1395353239500001,9.7627208175
1.7176899553674038e+18,-0.902001777645,-1.1447968826500001,9.773917533750001
1.7176899555674038e+18,-0.9078226992947369,-1.176521831263158,9.775421905526317
1.7176899557674038e+18,-0.9131535873199998,-1.13296398915,9.76506344605
1.7176899559674038e+18,-0.8958795089750001,-1.06339615633,9.781020263749998
1.7176899561674038e+18,-0.9245224456800001,-0.9329050140400001,9.7357843323
1.7176899563674038e+18,-0.9459054794599998,-0.84954336549,9.631690796050002
1.7176899565674038e+18,-0.91053403473,-1.027433441155,9.777270561199998
1.7176899567674038e+18,-0.8946894836421052,-1.106034200473684,9.788736323315788
1.7176899569674038e+18,-0.9196875,-1.1538455658000002,9.74456357575
1.7176899571674038e+18,-0.89472690581,-1.1968361664000002,9.8083983307
1.7176899573674038e+18,-0.9150995407049999,-1.0693013763499999,9.773618156400001
1.7176899575674038e+18,-0.9355170822449999,-0.9837093658149998,9.726533569399999
1.7176899577674038e+18,-0.910998069755,-0.9098828888149999,9.6850024338
1.7176899579674038e+18,-0.9461824036200002,-0.9687030715749998,9.724363082850001
1.7176899581674038e+18,-0.8979905138473685,-1.1277627001052632,9.802633739105264
1.7176899583674038e+18,-0.910706176765,-1.1866423645,9.76870088195
1.7176899585674038e+18,-0.89831943512,-1.19771184545,9.807941780050001
1.7176899587674038e+18,-0.9028100967449999,-1.0463765489099999,9.763693794249999
1.7176899589674038e+18,-0.9298813018550002,-0.993371772695,9.758798973049998
1.7176899591674038e+18,-0.9266779632499998,-0.8613687744099998,9.67440447245
1.7176899593674038e+18,-0.9368268585099999,-0.90574399567,9.706325592149998
1.7176899595674038e+18,-0.9026544992578948,-1.119718901,9.814356729631578
1.7176899597674038e+18,-0.8802819442700001,-1.1262878723,9.770152862500002
1.7176899599674038e+18,-0.903131927455,-1.1727662201000002,9.7741495514
1.7176899601674038e+18,-0.9067169723399999,-1.2036919097999998,9.782591995199999
1.7176899603674038e+18,-0.903693260195,-1.0623109131000001,9.771739562899999
1.7176899605674038e+18,-0.9347012786899999,-0.9816361770699998,9.7625486755
1.7176899607674038e+18,-0.9388791697210526,-0.9127860621578946,9.645759960052633
1.7176899609674038e+18,-0.9344093856700001,-0.946841033945,9.7373186416
1.7176899611674038e+18,-0.9110654297,-1.0897338867,9.815051994350002
1.7176899613674038e+18,-0.8865688705449999,-1.1675046615000002,9.7524072648
1.7176899615674038e+18,-0.9045315170350001,-1.19778668965,9.80565902705
1.7176899617674038e+18,-0.89990613555,-1.0849663009500001,9.7852340012
1.7176899619674038e+18,-0.9364002457000001,-1.00230818942,9.747377723700001
1.7176899621674038e+18,-0.9184742335210526,-0.8695496569210527,9.758696160578946
1.7176899623674038e+18,-0.9517732772549998,-0.766720596315,9.6913043289
1.7176899625674038e+18,-0.8829613723800002,-0.8327931976449999,9.805471916050001
1.7176899627674038e+18,-0.9349707183400001,-0.8318351898299999,9.804506424
1.7176899629674038e+18,-0.8857904891449999,-0.8669521636949999,9.798683532900002
1.7176899631674038e+18,-0.9368118895999998,-0.87880751039,9.7712530746
1.7176899633674038e+18,-1.111648315315,-0.9021140441800002,9.747317848149999
1.7176899635674038e+18,-1.0455126873157894,-0.822334683068421,9.751424440263158
1.7176899637674038e+18,-1.19755467232,-0.8840690689150001,9.7018349305
1.7176899639674038e+18,-1.012846275385,-0.99355139927,9.79045065235
1.7176899641674038e+18,-0.98191310123,-0.9840087433349998,9.730156036399999
1.7176899643674038e+18,-0.9796453170950002,-0.98476467136,9.78382692705
1.7176899645674038e+18,-0.9597516860950002,-1.00090859987,9.766171142600001
1.7176899647674038e+18,-0.9981480247578947,-1.0106430937105264,9.746524103999999
1.7176899649674038e+18,-0.9980794830549999,-1.0208995285500002,9.728621727
1.7176899651674038e+18,-0.9605600052349998,-1.0566676482950002,9.789889320499999
1.7176899653674038e+18,-0.9689650268050001,-1.03916903682,9.755116630649997
1.7176899655674038e+18,-0.98192058562,-1.0506202239850002,9.716766380400001
1.7176899657674038e+18,-1.00220340729,-1.12952863324,9.824796729949998
1.7176899659674038e+18,-0.9830881575899999,-1.04122725678,9.68346812435
1.7176899661674038e+18,-1.028936630973684,-1.1452999155789474,9.705422732526316
1.7176899663674038e+18,-0.8320073318400001,-1.1682081986100001,9.8022985153
1.7176899665674038e+18,-0.96258080294,-1.2308379593,9.761096694949998
1.7176899667674038e+18,-0.9854906616400001,-1.2193418655000001,9.666837707500001
1.7176899669674038e+18,-0.9884769515799998,-1.2547507323,9.7286292115
1.7176899671674038e+18,-0.9693317641749999,-1.2348121948000002,9.84888164505
1.7176899673674038e+18,-0.97867982484,-0.9588834915450001,9.7611191483
1.7176899675674038e+18,-0.8069403799157895,-0.8017721798526316,9.781590656578947
1.7176899677674038e+18,-1.06516248325,-0.70435279083,9.71993229655
1.7176899679674038e+18,-1.4284121017499998,-0.764624954225,9.6714481203
1.7176899681674038e+18,-1.25763224025,-0.793335250855,9.7513070526
1.7176899683674038e+18,-1.111483657825,-0.88194348905,9.8002178425
1.7176899685674038e+18,-0.9554930420549999,-0.92395362855,9.772525429000002
1.7176899687674038e+18,-1.1469149779842105,-0.9045768175473684,9.792541568473684
1.7176899689674038e+18,-1.2657753066699997,-0.76178835297,9.690698089399998
1.7176899691674038e+18,-1.31454389195,-0.77314972687,9.75864179995
1.7176899693674038e+18,-1.5795827406999998,-0.8491017837349999,9.671799888650002
1.7176899695674038e+18,-1.5047758026000002,-0.881823738085,9.694530120900001
1.7176899697674038e+18,-1.5358586654500002,-0.913295791685,9.7331572952
1.7176899699674038e+18,-1.6132926407500001,-0.924297912575,9.63665297705
1.7176899701674038e+18,-1.5623878399473685,-0.928976079036842,9.672522727473684
1.7176899703674038e+18,-1.4738800505500003,-0.95732672887,9.75436070265
1.7176899705674038e+18,-1.32738718416,-1.03214863585,9.7587465822
1.7176899707674038e+18,-1.4661037216500001,-0.78415184784,9.718532707200001
1.7176899709674038e+18,-1.2757071532000002,-0.631446899425,9.757631401000001
1.7176899711674038e+18,-1.3546679536,-0.5601052551300001,9.692329696699998
1.7176899713674038e+18,-1.4092369766000001,-0.7274722137399999,9.722237503099999
1.7176899715674038e+18,-1.1629316710578947,-0.6999917281315791,9.747233155947367
1.7176899717674038e+18,-0.9984761580800002,-0.7282281417850001,9.815523513750001
1.7176899719674038e+18,-1.035546569815,-0.7645800475899999,9.75617193615
1.7176899721674038e+18,-1.0274558944349999,-0.7841069412199999,9.81379460885
1.7176899723674038e+18,-1.095654075725,-0.749843193055,9.692015350450001
1.7176899725674038e+18,-1.10928323375,-0.9589059447549999,9.67904482265
1.7176899727674038e+18,-0.9683363342789475,-1.1544230491842107,9.878557434210528
1.7176899729674038e+18,-0.81435154724,-1.15667468255,9.793317192
1.7176899731674038e+18,-0.798207618715,-1.0655591583199997,9.773348716849998
1.7176899733674038e+18,-0.76218502808,-1.04550086971,9.757990654
1.7176899735674038e+18,-0.77283538055,-0.9926607513150001,9.6684393769
1.7176899737674038e+18,-0.867311416625,-1.1481948166499998,9.788414886750001
1.7176899739674038e+18,-0.8203989715500001,-1.24029828645,9.77735288995
1.7176899741674038e+18,-0.8459697442263158,-1.231410321736842,9.769457991789473
1.7176899743674038e+18,-0.84292712402,-1.2213626632999999,9.787629020900003
1.7176899745674038e+18,-1.007210495,-1.121093673715,9.735672065650002
1.7176899747674038e+18,-0.7328984298450001,-0.9743313675149998,9.780204460050001
1.7176899749674038e+18,-0.5732179870895001,-0.834926261835,9.751374413099999
1.7176899751674038e+18,-0.35517391204899995,-0.8513246612350001,9.8580351109
1.7176899753674038e+18,-0.66678840634,-0.47313610840299997,9.7260096589
1.7176899755674038e+18,-0.9975571481631578,-1.0053409616736844,9.85257462373684
1.7176899757674038e+18,-0.5966517562795,-0.5895041198835,9.7778693161
1.7176899759674038e+18,-0.87598587794,-0.9151818694800001,9.790473106250001
1.7176899761674038e+18,-0.43994263457000005,-0.8943751373150001,9.85603676635
1.7176899763674038e+18,-0.934918327355,-0.8417071609500002,9.8070735856
1.7176899765674038e+18,-0.785132308975,-0.6656208343500001,9.78890885945
1.7176899767674038e+18,-0.7399428598526315,-0.5276684971894737,9.77733634536842
1.7176899769674038e+18,-0.9329124984649999,-0.8122109985349999,9.789477676349998
1.7176899771674038e+18,-1.000661613515,-0.73863899232,9.7673012924
1.7176899773674038e+18,-1.1096350021499997,-0.7119345245350001,9.784313415549999
1.7176899775674038e+18,-1.0619292069249997,-0.78674146271,9.760445549
1.7176899777674038e+18,-1.109313171335,-0.7442747726400001,9.78110259255
1.7176899779674038e+18,-1.131167724655,-0.7526947631800001,9.75302098845
1.7176899781674038e+18,-1.061836636189474,-0.7737094839,9.76049242542105
1.7176899783674038e+18,-1.12101882933,-0.58596398163,9.889028160299999
1.7176899785674038e+18,-0.9739122391249999,-1.0063123627300001,9.694118477349999
1.7176899787674038e+18,-0.34960549163300003,-0.5330340499780001,9.84546125885
1.7176899789674038e+18,-0.8531209258984997,0.033814682028500014,9.802889786000003
1.7176899791674038e+18,-0.181737075804,-1.1304117966049998,9.8395710073
1.7176899793674038e+18,-0.641925109882,-0.6873930586980002,9.85198768635
1.7176899795674038e+18,-0.6144328067157895,-0.5340420853526316,9.86152443331579
1.7176899797674038e+18,-0.3543805618326,-0.831431030225,9.9756605069
1.7176899799674038e+18,-0.6347924423205,-0.90010073085,9.993877624549999
1.7176899801674038e+18,-1.12071945201,-1.0899733886900003,11.7145344995
1.7176899803674038e+18,-0.9680070190149997,-0.27234365843799996,10.069994339
1.7176899805674038e+18,-1.2899051283999998,0.8074958038479998,9.655274253699998
1.7176899807674038e+18,0.037319761542105256,1.3423454204473686,5.257556329
1.7176899809674038e+18,-0.577386817932,0.3292702789585,7.699351615450001
1.7176899811674038e+18,-1.34877770233,-1.4057043228650001,11.361261635599998
1.7176899813674038e+18,-0.487902900666895,-2.8679834976,13.224556892999999
1.7176899815674038e+18,-0.767266960117,-1.7275201034499996,11.4785652003
1.7176899817674038e+18,-1.4657968598400002,-0.4411251754625001,9.460372054999999
1.7176899819674038e+18,0.145886627145,2.12715905,4.453157112200001
1.7176899821674038e+18,-0.8827065076221053,0.08737094278736843,7.804675357578947
1.7176899823674038e+18,-1.006185127246,-2.145114212075,12.125302803999999
1.7176899825674038e+18,-1.754883201645,-2.9125607987000004,13.911613152000001
1.7176899827674038e+18,-0.86070265962,-1.3783861312999999,10.278428398549998
1.7176899829674038e+18,-0.5425916748014998,0.5630690917830999,7.9217216950500005
1.7176899831674038e+18,-0.249291595456,1.496213607765,4.379068679949999
1.7176899833674038e+18,-1.278004875065,-0.7519912261144999,10.238977935949999
1.7176899835674038e+18,-1.7053090548347372,-4.1604246682631585,13.934838144736844
1.7176899837674038e+18,-1.578572341903,-2.4670272903,11.600561508499998
1.7176899839674038e+18,-1.10147696682,-0.5843398590101999,9.6781616593
1.7176899841674038e+18,-0.0955388259715,1.8475180664899997,4.86195700845
1.7176899843674038e+18,-1.0328372040250002,0.68903215025295,7.68193533335
1.7176899845674038e+18,-1.3035268021025,-2.72953639985,11.760286855999999
1.7176899847674038e+18,-1.3596147718842104,-4.054350513578948,13.113590674210528
1.7176899849674038e+18,-1.58971666719,-2.0225790252,10.208957862399998
1.7176899851674038e+18,-1.1543170853100002,-0.6627168731925001,9.9754210054
1.7176899853674038e+18,-0.387843475339,1.245881675705,5.93896735375
1.7176899855674038e+18,-0.7538623352500001,1.1013946380250004,7.2233639376
1.7176899857674038e+18,-1.083791244595,-1.2831766205380002,10.970267212
1.7176899859674038e+18,-1.1926074600399998,-2.0968845060999994,10.744633918
1.7176899861674038e+18,-0.5891748046821053,-2.206482648315789,10.23981934373684
1.7176899863674038e+18,-0.5429209899774999,-1.8355878753000003,9.700570060550001
1.7176899865674038e+18,-0.8000936966150001,-1.2875325621900002,10.086991493099998
1.7176899867674038e+18,-0.6756200408949999,-1.3261447677499998,9.76493621085
1.7176899869674038e+18,-0.8897497558800002,-1.2919483796,9.857122009049998
1.7176899871674038e+18,-0.872752601625,-1.154189849775,9.747100799650001
1.7176899873674038e+18,-1.00701589969,-1.06802902228,9.75179354105
1.7176899875674038e+18,-0.9365314202789474,-0.4836836483605263,9.784797146421054
1.7176899877674038e+18,-0.9809027023350001,-0.38172120666500003,9.700113510200001
1.7176899879674038e+18,-0.9987680512200001,-0.6678736496,9.74374777235
1.7176899881674038e+18,-1.054706726105,-0.78648699185,9.78191839595
1.7176899883674038e+18,-1.3125230942000001,-0.8138201523300002,9.79477665705
1.7176899885674038e+18,-1.2088636550499998,-0.9903256072250001,9.751104972800002
1.7176899887674038e+18,-1.086361951294737,-0.6990542040315789,9.767685362157895
1.7176899889674038e+18,-0.77045532988,-0.72399943542,9.895606978949997
1.7176899891674038e+18,-0.5379887466800001,-0.4983436889699999,9.75712994405
1.7176899893674038e+18,-0.676952270505,-0.41785606384499996,9.7558351364
1.7176899895674038e+18,-1.286993682875,-0.68308202364,9.716758895600002
1.7176899897674038e+18,-0.16627423095669996,-0.36521054077000004,9.885517959850002
1.7176899899674038e+18,-0.128769721977,-0.455113586435,9.8409705965
1.7176899901674038e+18,-0.34288171066315787,-0.42877152291578957,9.863399482
1.7176899903674038e+18,-0.26214237212150004,-0.40469094086,9.826533119300002
1.7176899905674038e+18,-0.13377680970149997,-0.22013223267,9.8877558062
1.7176899907674038e+18,-0.06887926482975001,-0.31961535643100003,9.8286586996
1.7176899909674038e+18,-0.201084342964,-0.33653766634950005,9.805718902749998
1.7176899911674038e+18,-0.41670346070349995,-0.287409828217,10.262157234750001
1.7176899913674038e+18,1.945444427588,0.45625122072000013,11.59907958955
1.7176899915674038e+18,2.268296211613158,5.42826449761579,5.133748000263157
1.7176899917674038e+18,-2.09365871426,6.8351462401,-4.012713020305
1.7176899919674038e+18,-8.97821720125,6.31442408755,-4.6967006607011506
1.7176899921674038e+18,-8.9137163315,1.1369008026726,5.5180426712375
1.7176899923674038e+18,-4.016095985431001,3.792446067825,9.269474029200001
1.7176899925674038e+18,2.0906499710154995,1.6512013093049998,10.53048174985
1.7176899927674038e+18,3.8597000283052636,-2.2504438621526317,9.481701122105262
1.7176899929674038e+18,5.4763843002999995,-0.30365105433999995,6.5816034850500005
1.7176899931674038e+18,4.35128645325,0.40784188835499996,7.672998916799999
1.7176899933674038e+18,1.3843287735,1.855406662035,10.721110335885003
1.7176899935674038e+18,-2.733750137345,2.1034184189,9.81163160705
1.7176899937674038e+18,-2.546841316245,4.217966194,7.5091945495
1.7176899939674038e+18,-1.1690015487950003,5.07813745885,8.54115607445
1.7176899941674038e+18,-0.2992513877436842,4.797192607789474,8.39309384005263
1.7176899943674038e+18,0.561437484764,5.028904838499999,8.5015634079
1.7176899945674038e+18,2.65298558815,5.54116209405,7.9256510239
1.7176899947674038e+18,1.8971548462499999,4.9402142715499995,8.3635878295
1.7176899949674038e+18,2.6419086227,5.290134109549999,7.9731996458999985
1.7176899951674038e+18,2.8128095558823527,5.3258014095294115,7.7648382299411765
1.7176899953674038e+18,,,
