Timestamps,Acc_X,Acc_Y,Acc_Z,Label
1.7176771858776412e+18,-2.243076466869593,3.2235216137906977,10.21885515905814,1
1.7176771860776412e+18,1.1771574457244187,0.254140025065,8.662741383767443,1
1.7176771862776412e+18,2.51903012605814,-0.6511259929125348,7.823305789813952,1
1.7176771864776412e+18,5.496060231164706,1.15959000322,11.874312019388237,1
1.7176771866776412e+18,5.774270562267442,2.94311621022093,12.70260504798837,1
1.7176771868776412e+18,3.721395676146512,3.356017236081396,7.304007635581394,1
1.7176771870776412e+18,2.2273840033502905,7.496101257395348,3.0354346481355816,1
1.7176771872776412e+18,1.075250044356353,8.705764371988234,2.472376987948236,1
1.7176771874776412e+18,1.1213434666805815,10.81127349715116,1.6417545680092671,1
1.7176771876776412e+18,1.0329203261672906,9.635729867418606,0.9257997762847672,1
1.7176771878776412e+18,0.079686559898686,10.02297757431395,0.699984087330465,1
1.7176771880776412e+18,1.0461420533935293,9.67167654062353,1.1993390144586469,1
1.7176771882776412e+18,0.3799579889886627,10.01724592766279,0.1247050143877906,1
1.7176771884776412e+18,0.5859076622880233,9.809125988941862,0.3623178679882558,1
1.7176771886776412e+18,0.6673441623930587,9.936407167858825,-0.1445827872363647,1
1.7176771888776412e+18,0.907436254596686,10.102775451860465,0.0007234106193604,1
1.7176771890776412e+18,0.6929169218691861,10.083132056279071,0.0305502236036976,1
1.7176771892776412e+18,-0.0713395033377907,9.558380503872096,0.7806166515977909,1
1.7176771894776412e+18,-0.0602991281735882,9.87796594977647,2.274307544778824,1
1.7176771896776412e+18,1.2832763555023254,9.511581304558138,3.192192363197674,1
1.7176771898776412e+18,1.175766273314302,8.573650465418606,3.941257121953487,1
1.7176771900776412e+18,1.314883866326744,7.144244998069769,4.869561029069768,1
1.7176771902776412e+18,1.5457634238600002,6.437593735000001,6.585385743305884,1
1.7176771904776412e+18,1.6881085523372092,5.040675692813954,8.840978805406976,1
1.7176771906776412e+18,1.143991811339535,2.874892930639535,8.97937306693023,1
1.7176771908776412e+18,0.2634356988030588,4.432070527305883,10.333052724929413,1
1.7176771910776412e+18,0.8539594456945351,5.464817374255815,8.477381057523257,1
1.7176771912776412e+18,-2.80973025738686,4.867557731008256,8.33141895789535,1
1.7176771914776412e+18,0.1552552304419767,2.0706819415048834,8.160304235790697,1
1.7176771916776412e+18,0.1774066949554117,3.841127810729412,9.520450104035294,1
1.7176771918776412e+18,-1.9953358437058144,4.044371089232558,7.885630529988372,1
1.7176771920776412e+18,-2.3530906549534887,4.251489373104652,9.283984916139534,1
1.7176771922776412e+18,-1.8223292110127909,4.449648474476745,9.502010035058138,1
1.7176771924776412e+18,-2.114748500430588,4.323633452035294,8.57621420692941,1
1.7176771926776412e+18,-2.536670250883721,3.5169484698488365,9.72548847988372,1
1.7176771928776412e+18,-3.9984066485697674,1.4280142924709305,8.639592242732556,1
1.7176771930776412e+18,-4.039641091976745,-0.1278212453837209,9.858651848767444,1
1.7176771932776412e+18,-2.962595946635294,-0.3148954582594117,9.737774747752942,1
1.7176771934776412e+18,0.2462381462760116,-0.9150598950255812,9.90010891430233,1
1.7176771936776412e+18,0.0390085689429069,-1.2833319937697674,9.867889260290696,1
1.7176771938776412e+18,-0.4752427279288235,-1.0422572444694116,9.807926638141176,1
1.7176771940776412e+18,-0.5993742504465117,-0.6629231655209301,9.862881061639534,1
1.7176771942776412e+18,-0.3712213941684884,-0.773660767911628,9.842291665465115,1
1.7176771944776412e+18,-0.2372233241968953,-0.847726980618605,9.831384858348835,1
1.7176771946776412e+18,0.3217079662121176,-1.2881267954258822,9.742222539294117,1
1.7176771948776412e+18,-0.6079438902894185,-0.6195741243744186,9.971782307197676,1
1.7176771950776412e+18,0.1415660636701511,-0.8069933472837211,9.84885800138372,1
1.7176771952776412e+18,0.4489046567460465,-1.268696824515117,9.821423985011627,1
1.7176771954776412e+18,-0.2152977351619411,-0.96366005506,9.8542066012,1
1.7176771956776412e+18,-0.3895292685813953,-0.5272000383465115,9.8705603687093,1
1.7176771958776412e+18,-0.2830764843616278,-0.7838998277534883,9.839453608546512,1
1.7176771960776412e+18,0.1051715924918823,-1.2692094318682354,9.806575359976469,1
1.7176771962776412e+18,-0.0449071576787558,-0.8537925065965116,9.857817150627907,1
1.7176771964776412e+18,-0.5058315755313605,-0.7769439480034882,9.862825427046513,1
1.7176771966776412e+18,-0.6781148078825582,-0.9424938909360464,9.91691431882558,1
1.7176771968776412e+18,-1.0161895470407412,-0.8538154195517645,9.798918354023533,1
1.7176771970776412e+18,-1.306759385865116,-0.8437760389174418,9.776628139372097,1
1.7176771972776412e+18,-0.7140071499441859,-0.8394912197186045,9.834779295744188,1
1.7176771974776412e+18,-1.0894020637034882,-0.7061609147523257,9.817639994081397,1
1.7176771976776412e+18,-0.8078169233670591,-0.7020260116552941,9.824760852129412,1
1.7176771978776412e+18,-0.9520651718918604,-0.6740525718290699,9.821646601593024,1
1.7176771980776412e+18,-0.9665334051255812,-0.6802293956244185,9.858874454034884,2
1.7176771982776412e+18,-0.7946397052232559,-0.6412208191139536,9.819086817639532,2
1.7176771984776412e+18,-0.8540406247882353,-0.4581270070564708,9.82492979829412,2
1.7176771986776412e+18,-0.8977536746000001,-0.3862460922651163,9.861378581069769,2
1.7176771988776412e+18,-0.4431730115534882,-0.4033853805023255,9.857205080476742,2
1.7176771990776412e+18,-0.6744944782435294,-0.2817337512458588,9.877797070705885,2
1.7176771992776412e+18,-0.4738345286476744,-0.4968167539895349,9.893987700069768,2
1.7176771994776412e+18,-0.8114451107616278,-0.445065010422093,9.853365354697676,2
1.7176771996776412e+18,-0.5796751960360464,-0.446011012032558,9.87851789388372,2
1.7176771998776412e+18,-0.693186643722353,-0.3190054847870588,9.843790828458824,2
1.7176772000776412e+18,-0.5095599286767443,-0.5171835730988372,9.874288714220931,2
1.7176772002776412e+18,-0.5571937966453488,-0.3223076436767442,9.864884276674418,2
1.7176772004776412e+18,-0.796809938055814,-0.4524104189744187,9.87000384444186,2
1.7176772006776412e+18,-0.7465043628752942,-0.4522153282014119,9.864003114141177,2
1.7176772008776412e+18,-0.7722139493755813,-0.7116143241046511,10.628695543197676,2
1.7176772010776412e+18,-0.6962557445826745,-0.4289830130754651,11.900953780953488,2
1.7176772012776412e+18,1.2454501056041178,2.494109416007059,10.520312235564706,2
1.7176772014776412e+18,0.336219405461186,2.236788350465117,6.944750386697674,2
1.7176772016776412e+18,0.2638782542338372,2.757143799651163,4.075978609000001,2
1.7176772018776412e+18,-1.3294633863127094,2.408069940500001,10.635206278209305,2
1.7176772020776412e+18,-1.4024192759834118,0.6646979789045646,14.16320176976471,2
1.7176772022776412e+18,-1.3735914923302326,0.9379864764976746,11.925883681081396,2
1.7176772024776412e+18,-0.6531292859262792,2.362884533918604,8.398250989872095,2
1.7176772026776412e+18,0.20811992346,3.4567940068953487,3.5182839756860464,2
1.7176772028776412e+18,-0.1181209849749999,2.2793746934470587,9.504404135458824,2
1.7176772030776412e+18,-0.7219090238200347,0.6421111702989536,13.471758388023252,2
1.7176772032776412e+18,-0.3811822104227907,0.4606461776080232,12.724251714069766,2
1.7176772034776412e+18,-0.2768355032271999,2.135073410729412,9.818173543176467,2
1.7176772036776412e+18,0.5025484026511629,3.672481916616279,3.6327499428255816,2
1.7176772038776412e+18,0.1894225178206977,3.148898953604652,7.858586045220931,2
1.7176772040776412e+18,-0.3043336543517442,0.7894645309675232,12.153368839267443,2
1.7176772042776412e+18,-0.9487964034776116,0.1927207506315294,13.590669643058826,2
1.7176772044776412e+18,-1.2824416521279072,1.808417441494187,10.626135815046512,2
1.7176772046776412e+18,-0.2710010787163953,3.355683340511628,5.104781042709302,2
1.7176772048776412e+18,-0.4337686652276744,3.0967576836162785,6.26619042076744,2
1.7176772050776412e+18,-0.5928569947498824,1.4650830794494116,10.909694772823528,2
1.7176772052776412e+18,-1.0156140953213957,-0.4968724022684301,13.872639711627908,2
1.7176772054776412e+18,-1.0346453874084536,0.5966475441602326,11.431904937139535,2
1.7176772056776412e+18,-0.282408718331593,2.191602964006977,8.800690373697675,2
1.7176772058776412e+18,0.0648032663698823,3.729931935129412,3.780941278799999,2
1.7176772060776412e+18,-0.6421111725609302,1.9438623397674424,9.061007222139532,2
1.7176772062776412e+18,-1.466466404144186,0.4755039402095232,13.277661578372095,2
1.7176772064776412e+18,-1.523693151308235,0.935509198369412,12.933290795529413,2
1.7176772066776412e+18,-1.050170905533721,2.090047102988372,9.936780303267444,2
1.7176772068776412e+18,0.136669126626779,3.956114899290698,3.853334806686048,2
1.7176772070776412e+18,-0.3983214966216278,2.8230299089534885,7.3439065633255804,2
1.7176772072776412e+18,-1.0088703285258822,1.89027358782,11.54669230962353,2
1.7176772074776412e+18,-1.3812151412476743,0.5790630785279068,13.446272073953487,2
1.7176772076776412e+18,0.1264300721480232,1.4189994653790698,11.103587438837213,2
1.7176772078776412e+18,0.0297711660648255,3.0825676945116283,8.05496440654651,2
1.7176772080776412e+18,0.1275233707702705,3.6080387451764704,3.708649891941176,2
1.7176772082776412e+18,-0.877052968594302,3.154074119965117,9.643798622558135,2
1.7176772084776412e+18,-1.6997387842073253,0.991018108749128,12.613235972325583,2
1.7176772086776412e+18,-1.4379456478411765,0.2158044513453529,12.65600490635294,2
1.7176772088776412e+18,-0.929472481178372,1.916929185418605,9.954587326534885,2
1.7176772090776412e+18,1.2958525839760464,3.3197353717558133,5.520241856511628,2
1.7176772092776412e+18,0.2602055482791511,3.2764976024069767,6.520664287127908,2
1.7176772094776412e+18,-0.8248200391950589,2.1503874764505886,10.29077008717647,2
1.7176772096776412e+18,-0.84900686257907,0.753238307905814,14.334510115930232,2
1.7176772098776412e+18,-0.9488376546860462,1.2032002585232555,11.080215697965118,2
1.7176772100776412e+18,-0.8083288771326164,3.0274771119767445,8.457181226372093,2
1.7176772102776412e+18,0.0693074058877647,3.5695283552941177,3.7891050156352937,3
1.7176772104776412e+18,0.0046187065424418,2.5679995098372097,9.14570200172093,3
1.7176772106776412e+18,-1.4965157999616274,0.6101697716535466,12.525870046279069,3
1.7176772108776412e+18,-0.8611346465329409,0.1942971964078823,13.166042047411766,3
1.7176772110776412e+18,-0.7083868011752674,1.3468252669430234,10.358473588918606,3
1.7176772112776412e+18,-0.2862483642436047,3.3287501861976736,5.5887433568139535,3
1.7176772114776412e+18,-0.3677156279101162,3.4722639100697674,5.684734491453488,3
1.7176772116776412e+18,-1.017428194497647,2.402225032900001,10.926472697258824,3
1.7176772118776412e+18,-1.0423803225363952,0.2065061588936046,13.696795064418604,3
1.7176772120776412e+18,-1.1010323008713376,1.277433406510465,11.401855535872093,3
1.7176772122776412e+18,-0.4891374654665116,2.657591238965116,8.438650741069768,3
1.7176772124776412e+18,0.7280374051741176,3.8007031638,3.904185729882353,3
1.7176772126776412e+18,-0.5565260222388371,3.1849025793023245,8.951215643872091,3
1.7176772128776412e+18,-1.4802668599009885,1.5366373124104653,12.381076513488372,3
1.7176772130776412e+18,-0.3480165785422092,0.8294747504141861,13.17399118127907,3
1.7176772132776412e+18,-0.2652936542942941,2.203592603341176,9.910226866482354,3
1.7176772134776412e+18,-0.1354448920940349,3.989948278220931,5.554242184000001,3
1.7176772136776412e+18,0.2304343834500232,3.1357662483720925,5.691022595662791,3
1.7176772138776412e+18,-1.0855532594752946,1.9323872621776468,10.605890823305884,3
1.7176772140776412e+18,-1.3940139552055817,-1.0553460813502908,13.698130574534884,3
1.7176772142776412e+18,-0.8615274451831977,0.1429572414425348,11.711865180476746,3
1.7176772144776412e+18,-0.8053795829261629,1.7895531023930236,9.391105430186048,3
1.7176772146776412e+18,0.1260595249254941,2.708224808494118,5.378051839235295,3
1.7176772148776412e+18,-0.0836931463055813,2.3991107621162797,7.035343735639536,3
1.7176772150776412e+18,-0.9906842175509304,0.5955346029678488,11.923212594965117,3
1.7176772152776412e+18,-0.8601919188065115,-0.7061609174284882,13.730016386976748,3
1.7176772154776412e+18,-0.92137747616,0.634013542982353,10.88407749790588,3
1.7176772156776412e+18,-0.5701039070823488,2.5220350650697667,8.190242362627908,3
1.7176772158776412e+18,0.7797819446524418,2.715965007604652,4.301905601523256,3
1.7176772160776412e+18,-0.3832457313702941,1.3943681226141174,9.603832968788234,3
1.7176772162776412e+18,-0.690023273437907,-0.8161751041695349,13.44783022244186,3
1.7176772164776412e+18,-0.9413252986239536,-0.3260359965231046,12.773499400232556,3
1.7176772166776412e+18,-0.8298642831543604,0.5128431041851162,9.600226990081396,3
1.7176772168776412e+18,-0.3014393487937647,2.439384161705883,8.353822388388236,3
1.7176772170776412e+18,-0.6447265861563953,3.4315302621395354,8.65211282216279,3
1.7176772172776412e+18,-0.1397853613522092,2.1096348589081395,10.110621695802326,3
1.7176772174776412e+18,0.723689728059186,1.3089296335918603,8.063701014313954,3
1.7176772176776412e+18,-0.6999428450677646,3.1216482807529413,8.832049134129411,3
1.7176772178776412e+18,-0.4850195876291861,2.4819692067790693,10.375724171720927,3
1.7176772180776412e+18,0.9111646034244184,2.626261974488372,9.58047239706977,3
1.7176772182776412e+18,-0.041568335695,3.339712650255814,9.39088285782558,3
1.7176772184776412e+18,-0.845595371473941,3.8740080131647057,9.01367849462353,3
1.7176772186776412e+18,-0.586185904770058,5.072561397023256,8.572314972116278,3
1.7176772188776412e+18,-0.5096155779196512,5.369994823337208,8.280835756093023,3
1.7176772190776412e+18,-0.904486964423294,5.4250638064,8.612472472447058,3
1.7176772192776412e+18,-0.2634330672951161,5.503937244383721,8.440542708988374,3
1.7176772194776412e+18,-1.0245732736431394,7.123210424593023,7.92959169451163,3
1.7176772196776412e+18,-5.212124189357674,7.019039134604651,5.738712113953487,3
1.7176772198776412e+18,5.380472837247765,2.0936916654576474,1.6819572698242355,3
1.7176772200776412e+18,20.53665068,1.4619033398646513,8.346944498430231,3
1.7176772202776412e+18,10.078123786,1.586274469326744,9.542298472313952,3
1.7176772204776412e+18,0.6281994293647675,4.348816034406976,8.064647034104652,3
1.7176772206776412e+18,-0.2968789158857293,5.4889662406,6.867738796717648,3
1.7176772208776412e+18,0.82307534286,6.5576695841627926,8.376326034186047,3
1.7176772210776412e+18,0.4411140745862209,5.109511042720929,9.474798690488372,3
1.7176772212776412e+18,1.6313420281764703,3.473702871082353,7.037769940305883,3
1.7176772214776412e+18,0.5817897809948024,5.129710926569768,5.841547860697674,3
1.7176772216776412e+18,-0.8037101733779072,6.57597743077907,7.3640508152441875,3
1.7176772218776412e+18,-1.4781522757790695,7.253980985906976,6.804019004848837,3
1.7176772220776412e+18,-3.0889932548235297,6.96987011835294,7.858029562,3
1.7176772222776412e+18,,,,3
