Timestamps,Gyro_X,Gyro_Y,Gyro_Z
1.7177479245774912e+18,0.001570333693857143,-0.06137265144971428,0.07788621627172858
1.7177479247774912e+18,-0.014752732892699997,0.012878241542575001,0.031745954571419994
1.7177479249774912e+18,0.005657300794699998,-0.008189385867350001,0.0050922481230999996
1.7177479251774912e+18,0.034234404970140006,0.06961342813350002,0.001516137458035
1.7177479253774912e+18,-0.00775848111055,0.059037235564500024,0.01715384813685
1.7177479255774912e+18,0.00123689808527,-0.0051433474166999995,0.0056227030933
1.7177479257774912e+18,-0.0149780140201,-0.0328069367455,-0.013402957900955002
1.7177479259774912e+18,-0.5679322608904761,0.09307168231809523,-0.03890590385259524
1.7177479261774912e+18,-1.3220948099099998,0.31647067369,-0.0089950286813
1.7177479263774912e+18,-0.7734649449749998,0.46197119654499996,-0.015980381459749997
1.7177479265774912e+18,0.06585216683339999,0.018678828615500007,0.068522190072
1.7177479267774912e+18,0.07232681037399999,-0.30170588045749996,-0.20861391593
1.7177479269774912e+18,0.539768096805,0.18665390147545,0.08664182433699999
1.7177479271774912e+18,0.34203514903500004,-0.2870145029887,0.0973564717823
1.7177479273774912e+18,0.35040053973714286,-0.20498046225904765,0.005651930042561906
1.7177479275774912e+18,-0.6954840928199999,0.02002811208929999,0.050349336494999994
1.7177479277774912e+18,-0.719799433645,0.0012734137569999956,-0.021103317908200005
1.7177479279774912e+18,-0.18186994048035002,-0.2186737934955,0.03090993778105
1.7177479281774912e+18,-0.051830562710350005,-0.21132792188549998,0.0094560931626
1.7177479283774912e+18,0.6292614668600001,0.16253685923925,-0.02331028521415
1.7177479285774912e+18,0.568343866997,0.024255327371500008,0.17555093803775002
1.7177479287774912e+18,0.28369089846666673,0.40432275034142845,0.006003719930238097
1.7177479289774912e+18,-0.8592861771800001,0.0414350869635,-0.13152191787599998
1.7177479291774912e+18,-0.6129258304799998,0.19400905818255,-0.11288541919265001
1.7177479293774912e+18,0.040147558109850004,-0.19427675306999997,-0.025934208978400004
1.7177479295774912e+18,0.1821227522595,-0.012597472692999994,-0.04365146638945
1.7177479297774912e+18,0.48430086077,0.26845954973549996,0.1014207172121
1.7177479299774912e+18,0.5493443854150001,-0.10733757785166001,0.0626772748325
1.7177479301774912e+18,-0.210880786925,-0.30281617082199996,0.0303430587529
1.7177479303774912e+18,-0.7566230226380952,0.11428547593190477,-0.03332530633569523
1.7177479305774912e+18,-0.36108626872999994,0.03903445755029,0.047173158451225
1.7177479307774912e+18,-0.1172011554697,0.150496644907,0.081403129802855
1.7177479309774912e+18,0.1935805858965,0.13629260956649997,0.1397487872275
1.7177479311774912e+18,0.70181413293,0.08695238469975,0.08651547162705
1.7177479313774912e+18,0.49311127811500005,-0.01111050248349999,-0.027041325246000003
1.7177479315774912e+18,-0.25893642589585,0.050977532498300004,-0.08581937104800001
1.7177479317774912e+18,-0.7403599534666667,0.18097960137414285,-0.03514392310809524
1.7177479319774912e+18,-0.38558348789999997,0.031566024287499994,-0.076584278046
1.7177479321774912e+18,-0.1168541454735,-0.122966629078,-0.034298850667409994
1.7177479323774912e+18,0.3292219970325,-0.0017050811948464955,-0.04669657003635
1.7177479325774912e+18,0.636005456725,-0.07640551067775,0.06661166871579999
1.7177479327774912e+18,0.5263751243763001,-0.09164885446840002,0.051801683382500005
1.7177479329774912e+18,0.051388267759249984,-0.0073083929715000075,0.001300364308799999
1.7177479331774912e+18,-0.752602906457143,0.08376242011938097,-0.06416584399999999
1.7177479333774912e+18,-0.5230632528599999,0.039420901027350005,-0.069417579009
1.7177479335774912e+18,0.032379645655500014,-0.03640698739399998,0.07552760218010002
1.7177479337774912e+18,0.31059285699499994,-0.157926561316,-0.013085005885450002
1.7177479339774912e+18,0.16793978259498002,-0.0816095108204,0.0161310055135
1.7177479341774912e+18,-0.004492397495349998,0.002667098865099999,0.036170687398750005
1.7177479343774912e+18,0.035329713207,-0.010957778956399999,0.016487086412750002
1.7177479345774912e+18,0.030510596093000008,-0.01426158564805,0.00488178331875
1.7177479347774912e+18,0.04412354928,0.0016020890106047622,0.008327237496828574
1.7177479349774912e+18,0.0478659695935,-0.019642521394249997,-0.017005098052050003
1.7177479351774912e+18,0.02163351664745,0.010860443732595,-0.00269448260066
1.7177479353774912e+18,0.015637559943349998,0.017243202775550002,-0.00208862120057
1.7177479355774912e+18,0.0013955965107350001,0.0006839368141349997,-0.0031312582664999996
1.7177479357774912e+18,0.011371548653619999,-0.03087340812235,-0.0254947352111
1.7177479359774912e+18,0.0077605813802995,0.0037459736333499997,0.005352193676592
1.7177479361774912e+18,-0.001055351560942857,0.00029625762478571434,-0.002364780686666667
1.7177479363774912e+18,0.0013587009888900003,0.0007802577398055001,-0.00020638109409499978
1.7177479365774912e+18,-0.04815234841084999,0.0013316951692300002,-0.00260075735877
1.7177479367774912e+18,-0.056221753916999996,0.014838870032900001,0.002010855876315
1.7177479369774912e+18,-0.0138818401136,0.02415898926415,-0.0055853087686
1.7177479371774912e+18,-0.012889127409550002,0.015167681361199998,0.0008819401140600002
1.7177479373774912e+18,0.019679285690349997,0.0019391721061800004,0.0007471915510000001
1.7177479375774912e+18,0.03230865136680953,0.005513156825122381,0.0011693127122476192
1.7177479377774912e+18,0.029821513686,-0.008821380569635,0.006360059999914999
1.7177479379774912e+18,0.027910197264050002,0.008127622842295002,0.007244364381259999
1.7177479381774912e+18,0.005935618299784998,-0.010796240787,0.00011303329953500003
1.7177479383774912e+18,-0.00567682041121,0.0033524223482550007,-0.003936312411705
1.7177479385774912e+18,-0.0360559977356,0.011766502214749999,0.00361478792048
1.7177479387774912e+18,-0.031475008419299996,-0.012749173538,-0.00419225583905
1.7177479389774912e+18,-0.015277302125299999,0.0207900142764,0.00817115354615
1.7177479391774912e+18,-0.008543510931190476,0.0018712802834890477,0.001266704384404762
1.7177479393774912e+18,-0.0104335266401,0.001411590189695,-0.0010181787539499999
1.7177479395774912e+18,0.01807331146035,0.004912454996065,0.0015681977733499996
1.7177479397774912e+18,0.028363468684,0.00241668774984,0.00038696746343499995
1.7177479399774912e+18,0.012632458080744998,-0.014797780092455002,0.004907944100275
1.7177479401774912e+18,0.013208348863000003,-0.039757968391500004,-0.00861095762795
1.7177479403774912e+18,0.007839303957854999,0.0123761310943,0.006591883697000001
1.7177479405774912e+18,-0.00792468984679238,-0.006842612299328096,-0.0016124159142809525
1.7177479407774912e+18,-0.005595931541465001,-0.0041852419203285,-0.00108805480413
1.7177479409774912e+18,-0.0029069427954295,0.003993969247730001,0.0012296446716000002
1.7177479411774912e+18,-0.013137738031380002,-0.0037001176849800004,0.001052783947656
1.7177479413774912e+18,-0.0011964052681949996,0.0023114315934615,0.0013196518761
1.7177479415774912e+18,0.008931748300825,-0.00265028100705,0.00011228116930000008
1.7177479417774912e+18,-0.0028629678102499996,-0.002908693312185001,-0.0005509178968649996
1.7177479419774912e+18,-0.02807063517272381,0.025696944179523812,-0.0009513417524761904
1.7177479421774912e+18,0.01480448401965,0.0042109280588045,0.003878304874525
1.7177479423774912e+18,-0.0061538638901355,-0.0121710370759,0.0063499011911094996
1.7177479425774912e+18,-0.004768116033234999,-0.00846114649874,0.0036708163677299996
1.7177479427774912e+18,0.0009744119973750005,-0.00525443265157,-0.0012190274311349998
1.7177479429774912e+18,-0.0085515006393,0.0039453118341251,-0.0001473863958300002
1.7177479431774912e+18,0.00257038482529,-0.00272867162724,-0.001976917497725
1.7177479433774912e+18,0.0214246268375,0.0052802858411,8.426837151999989e-05
1.7177479435774912e+18,0.017548549698904764,-0.005517177871080953,0.0006821867787942857
1.7177479437774912e+18,0.019266532642150003,-0.00201426848075,-0.0006227057660259999
1.7177479439774912e+18,0.0075712994204999995,0.006293249117800001,0.0031265530735700006
1.7177479441774912e+18,-0.0062460307096949995,-0.002361044054375,-0.0008629476534049999
1.7177479443774912e+18,-0.00930495473959,0.0019827451382000002,-0.0009859345272299996
1.7177479445774912e+18,-0.0095427671913,0.00485869126873,0.0007761023239984999
1.7177479447774912e+18,-0.016974827751400003,-0.0017890565563949998,-0.0017367100808590003
1.7177479449774912e+18,-0.012796659572547619,-0.0029966307007571443,-0.002695183757561904
1.7177479451774912e+18,-0.009332367271599999,0.0063860421064349995,-0.0017000955412624999
1.7177479453774912e+18,-0.009280207881749998,0.00380340303537,0.00103368290005
1.7177479455774912e+18,0.003981737931050001,0.0011086937390699999,0.0025220210546950004
1.7177479457774912e+18,0.0230136890202,0.00497266285819,-0.0009199149674599999
1.7177479459774912e+18,0.029907145163999997,-0.00030032021457999995,-0.0003955310327010002
1.7177479461774912e+18,0.013678495446350001,0.003976250427955,0.0011622300020779999
1.7177479463774912e+18,0.0009751023749885716,0.0042898261785476195,0.0005253497845095239
1.7177479465774912e+18,-0.0074855299529,0.003960863256374498,0.001131826173535
1.7177479467774912e+18,-0.01186563729935,0.00100319269099,4.678584510800004e-05
1.7177479469774912e+18,-0.016308556411835,-0.00024167543763350003,-0.0009607432991940799
1.7177479471774912e+18,-0.007857577229250002,0.003408696968155,-4.644738550000499e-07
1.7177479473774912e+18,-0.006738504124930001,-0.003934261202799999,0.0014493070776000001
1.7177479475774912e+18,-0.014482640125199998,-0.00229910796054,0.0027764478814390004
1.7177479477774912e+18,-0.008898652962225,0.000711655989225,-0.000812783825699
1.7177479479774912e+18,-0.0012996162874561903,-0.001956563587057143,-0.0006203910757752381
1.7177479481774912e+18,-0.0009268910331755,0.0010770218971265,0.002057358354745
1.7177479483774912e+18,-0.0070754194165500005,-0.0023774258092799996,-0.00060192419915
1.7177479485774912e+18,-0.0011333975401650001,0.00431087953045,0.002398006850785
1.7177479487774912e+18,0.0005958020193299998,-0.00066209144427,0.00084612788632
1.7177479489774912e+18,0.012062612077499998,0.0010849651184514446,-0.0008715787436165002
1.7177479491774912e+18,0.0232912991195,0.0005665426724950001,-0.0022410788922600003
1.7177479493774912e+18,0.023981619138571424,0.0025610952818014283,0.00034608438035142866
1.7177479495774912e+18,0.013932080548475001,-0.00024197214507999995,0.0015744699747345
1.7177479497774912e+18,0.008336960445925,-0.00110771809691,-0.000292655196925
1.7177479499774912e+18,-0.003062164506975,0.0046270821941800004,-0.0002950785915135
1.7177479501774912e+18,-0.009881165204999999,-0.0012799414224685,-0.0009601250989745
1.7177479503774912e+18,-0.015659563502211,-0.0035499924558450003,0.0010049490490649997
1.7177479505774912e+18,-0.0113534578362,-0.00032105336432,-0.0014355545980049998
1.7177479507774912e+18,-0.009542351190190475,-0.001442093102857143,-0.0011019687878
1.7177479509774912e+18,-0.0132823295073,-0.0012934522817299998,-0.0006595665589849999
1.7177479511774912e+18,-0.00763496813595,-0.00391614150733,-0.00175159196368
1.7177479513774912e+18,0.0005003718629950001,0.004545302147529999,-0.00013967746632049995
1.7177479515774912e+18,0.009926384149515,-0.0032903420972149994,-0.0029688505571644997
1.7177479517774912e+18,0.01876903030845,0.00107226988751,0.00045499110131500014
1.7177479519774912e+18,0.022738255467500003,0.004587829613544999,-7.114101889350005e-05
1.7177479521774912e+18,0.0164804059087,-7.173853230999994e-05,0.0008044890478200002
1.7177479523774912e+18,0.007687854240233334,0.0036213686582823807,0.0007315180042209523
1.7177479525774912e+18,-0.0036455924126284995,0.006424890714960001,-0.0021342368913900003
1.7177479527774912e+18,0.0110398920949025,0.009016521414400002,0.001212034409537
1.7177479529774912e+18,0.005613925721199998,0.012470447471555,-0.0057984100652
1.7177479531774912e+18,-0.03633720968578501,0.009309940679574,-0.001885745010245001
1.7177479533774912e+18,-0.04227527573329999,-0.019118180243099997,0.004043619451225
1.7177479535774912e+18,-0.011142332048560001,-0.00308195698315,-0.004905003018685
1.7177479537774912e+18,-0.01105955426052381,0.01182753775717619,0.0029069598806419046
1.7177479539774912e+18,0.021933767076550002,-0.010199737025099999,0.000790431199354
1.7177479541774912e+18,0.040544400364000005,0.011898877343899997,0.00464509644092
1.7177479543774912e+18,0.024839318543,0.00148879357141,0.00023722418112999996
1.7177479545774912e+18,0.008991623801000001,0.0109808120525,0.0005707870819999999
1.7177479547774912e+18,-0.00626053458287,0.009327357134295002,0.0016229448606550003
1.7177479549774912e+18,-0.011434050207,-0.011212455342115001,-0.0014622872170625004
1.7177479551774912e+18,-0.022529358443809523,-0.006355292618509523,-3.84147610666667e-05
1.7177479553774912e+18,-0.015966459712834998,-0.0005612252049399999,0.0016710987779500002
1.7177479555774912e+18,-0.004844650917100001,0.001933436153897,0.002739328704702
1.7177479557774912e+18,-0.01631706844835,0.0073571940654849986,0.001322523213485
1.7177479559774912e+18,-0.006118980014835002,-0.0012193752571694999,-0.0011858074345000003
1.7177479561774912e+18,-0.0023685357096500004,0.0018928643781234995,0.0014303089118549999
1.7177479563774912e+18,0.006660545221495,-0.00223609114773,-0.0003880442120824999
1.7177479565774912e+18,0.01199990265335,0.000759011076295,-0.0025501541793625
1.7177479567774912e+18,0.020965309459047624,-0.002617573443061905,-0.0024106373369242855
1.7177479569774912e+18,0.0180818972175,0.0035649984258199997,-0.001700758224033
1.7177479571774912e+18,0.010607833354335,0.002882080793035,0.0004581924702054999
1.7177479573774912e+18,0.0021269894846999995,0.0018259973206749998,-0.001218191347975
1.7177479575774912e+18,-0.00654209570515,0.004937069746665,0.0003991805831250001
1.7177479577774912e+18,-0.0119639449285,-0.005480477912500001,-0.001042557862765
1.7177479579774912e+18,-0.015537395820552,-0.011641871754645,-0.00210484160338
1.7177479581774912e+18,-0.010426981685000001,0.00043193070168571433,0.0004141812234714286
1.7177479583774912e+18,-0.008378876990449998,-0.00755503802835,-0.0009018440381250001
1.7177479585774912e+18,-0.01188001515731,0.000488746480315,0.0027339414810250004
1.7177479587774912e+18,-0.0054012105858599994,-0.0060864512689875,-0.00321132404506
1.7177479589774912e+18,0.000264651028597,0.0005110007709849998,0.0007628370891499999
1.7177479591774912e+18,0.016393165802999994,-0.0012290220125599999,-0.00265779367766
1.7177479593774912e+18,0.011090358102650001,0.00132851941144,0.0008435041760150001
1.7177479595774912e+18,0.018622138804809524,0.008727519829091904,0.000880406615032857
1.7177479597774912e+18,0.015954292053499998,0.002495849027805,0.00048778946506
1.7177479599774912e+18,0.00134090285236,-0.000784807227365,0.00015359909169499999
1.7177479601774912e+18,-0.0069892127535,0.0003103999304,-0.00068539761700155
1.7177479603774912e+18,-0.01132585406275,-0.001863988098935,-0.0014452335308145002
1.7177479605774912e+18,-0.012669237656499998,-0.0031621723785100002,-0.00022471261905500006
1.7177479607774912e+18,-0.01614765716945,-0.00854199841905,-0.0026781979135635002
1.7177479609774912e+18,-0.008067451300799998,0.001074720604755,0.0009730379736700003
1.7177479611774912e+18,-0.0052429761135380955,-0.002921364220219048,0.00037198888492952383
1.7177479613774912e+18,-0.005892873625095001,-0.0006418092059450001,0.0009059340110949999
1.7177479615774912e+18,0.00970623458053,0.0035389824304,-0.0006425173138721501
1.7177479617774912e+18,0.022152884489499997,0.0036373731679110004,0.0016116849030250002
1.7177479619774912e+18,0.014514423253314998,0.00466329937284,0.0016005225480199999
1.7177479621774912e+18,0.0176853392962,0.00212816292176,-0.0006807318305699999
1.7177479623774912e+18,0.0108965703222,0.01037635222305,0.0014936346153600001
1.7177479625774912e+18,-0.008474015675523808,-0.0029198740874523807,-0.0005963020403971429
1.7177479627774912e+18,-0.017489519086450002,-0.00565648945044,-0.0013961614575900001
1.7177479629774912e+18,-0.012680823147150003,-0.0020409593009379995,-0.0015153873477539998
1.7177479631774912e+18,-0.010436100279750001,-0.00420938710451,-0.0011222990928785002
1.7177479633774912e+18,-0.014029619365399999,-0.0015452007298150001,0.001516151730879
1.7177479635774912e+18,-0.009279678758559997,0.0001527130138970001,-0.00243333143882
1.7177479637774912e+18,0.0021825868142900003,0.000631864369005,0.0006807541823635
1.7177479639774912e+18,0.012676801134000002,0.0016668705334714287,-0.00019557967534380955
1.7177479641774912e+18,0.020833899360099994,0.0032861097016800003,0.001104565767999
1.7177479643774912e+18,0.020769102823999998,0.0055564554758,0.0013952499371499998
1.7177479645774912e+18,0.0158047713807,0.0038645762251350003,0.0008317250176435
1.7177479647774912e+18,-0.0032130963484949997,0.0006558035267249999,-0.0008662684294999999
1.7177479649774912e+18,-0.007755016390050001,0.004617474437645,0.00037177428608425
1.7177479651774912e+18,-0.01207895092735,-0.00616477669685,-0.0025691203074225
1.7177479653774912e+18,-0.01983620729395,-0.0054357815185,-0.000198598753164
1.7177479655774912e+18,-0.009091006808428573,-0.0052620395795,-0.00040575554265714306
1.7177479657774912e+18,-0.0062209544762,-0.0004393213138205,0.00148185018923
1.7177479659774912e+18,-0.004587800789205,9.657812199000003e-05,-0.00022171310847600008
1.7177479661774912e+18,0.006681463798499999,-0.00354136321743,-0.001065271353562
1.7177479663774912e+18,0.024210067187500003,0.0111390621399,0.00252431411065
1.7177479665774912e+18,0.0230320383795,0.0021983735379100004,-0.0010234444052244999
1.7177479667774912e+18,0.0124261966098,0.01033218368025,0.00097985758914
1.7177479669774912e+18,0.013574689427619049,0.004033796245444762,-0.0005109196173619047
1.7177479671774912e+18,-0.005021119231310001,0.004269121517382,0.000689070811555
1.7177479673774912e+18,-0.017738236206899998,-0.0067073676969549995,-0.00048542124571
1.7177479675774912e+18,-0.01713545036005,-0.00326456380435,-0.0008485706116150002
1.7177479677774912e+18,-0.01833477374135,0.007956835557900001,0.001749705226405
1.7177479679774912e+18,-0.011396901565299999,-0.008417537552550002,-0.0019909231459050002
1.7177479681774912e+18,-0.013277201677065,-0.00596529969494,0.0006810756631349998
1.7177479683774912e+18,-0.006412568776395238,-0.0036775564465285717,-0.0007564363823804763
1.7177479685774912e+18,-0.0009104200929120001,-0.00131781240918,0.0006698257638975001
1.7177479687774912e+18,0.006531850533769999,7.829234216999996e-05,0.00029238167910999993
1.7177479689774912e+18,0.017195701878800002,0.0037312413915049996,-4.299973368000002e-05
1.7177479691774912e+18,0.021831533593,0.007341516844599999,0.0005322468350349999
1.7177479693774912e+18,0.019270041398500002,0.003383566532395,-0.00028522178754499997
1.7177479695774912e+18,0.008878976689650002,0.0034112682916220003,0.0018322640273509996
1.7177479697774912e+18,-0.005717062740464999,0.0015913883689500003,-0.0010629444091750002
1.7177479699774912e+18,-0.013345199459857142,-0.003646867882,-0.00019464487694809506
1.7177479701774912e+18,-0.01908229920035,-0.00762418005619,0.00107273776654
1.7177479703774912e+18,-0.011781415332015,-0.007106368569549999,-0.003584305418084999
1.7177479705774912e+18,-0.00854124666595,-0.00149037366491,-3.3252150785000025e-05
1.7177479707774912e+18,-0.00469366766055,-0.0018951238947649998,-9.466847398699998e-05
1.7177479709774912e+18,-0.0035171492200850004,-0.00292625222361,-0.000661771418565
1.7177479711774912e+18,0.01604439911935,0.0066788270955115,0.0005418403540500001
1.7177479713774912e+18,0.02561539083238095,0.003650713756333333,0.00011489416156190478
1.7177479715774912e+18,0.017203367920549998,0.004701489815585,0.0008200988870650001
1.7177479717774912e+18,0.014730430114699999,0.005521611217234999,6.969717208050002e-05
1.7177479719774912e+18,0.0013928204947499998,0.0048040318767335,0.001048128562965
1.7177479721774912e+18,-0.009473029115949999,-0.0033279378781549997,-8.705198412000001e-05
1.7177479723774912e+18,-0.010611487954500001,-0.007251293165899999,-0.00253746856474
1.7177479725774912e+18,-0.00891503418065,0.0019968373700349996,0.001344610017141
1.7177479727774912e+18,-0.010103050874380954,-0.006501452930761905,-0.0006390331047195239
1.7177479729774912e+18,-0.0134387987212,-0.0031493482302400004,0.0021528926910599996
1.7177479731774912e+18,-0.011976213823800002,-0.003581532777799999,0.0009154854051499998
1.7177479733774912e+18,-0.0012121661594249999,-0.0011046870029645,0.0007542615406300002
1.7177479735774912e+18,0.01716089611865,0.002138782776075,-0.001926906057645
1.7177479737774912e+18,0.015221893516685,0.0010721630766420001,-0.0011516976637
1.7177479739774912e+18,0.018718905793,0.0091184626329,0.000307834369561
1.7177479741774912e+18,0.012474529375399999,0.002718448324568,-0.0008824196993399999
1.7177479743774912e+18,-0.00424873158115238,0.0033373150344047616,-0.0002163477586571429
1.7177479745774912e+18,-0.008914558007449998,0.00012586653459549995,8.273600254199994e-05
1.7177479747774912e+18,-0.007804574056019998,-0.004688659007695,-4.0612043899999985e-05
1.7177479749774912e+18,-0.014545710152350002,-0.005677769030615001,-0.0005472035321874999
1.7177479751774912e+18,-0.0103009950017,-0.0070597360492650005,-0.0017056584124599996
1.7177479753774912e+18,-0.006252659403199999,-0.00048690024415249994,0.0010099263337349999
1.7177479755774912e+18,-0.003586556603985,-0.0053782633273600005,-0.0010306334705449999
1.7177479757774912e+18,-0.005235856155476191,-0.0016188729286523808,0.0003520991609190475
1.7177479759774912e+18,0.012567652621949999,0.00347226969315,-2.6385579218000032e-05
1.7177479761774912e+18,0.0222047068175,0.006513862789434999,0.0005545163061759999
1.7177479763774912e+18,0.0123111929282,0.00476250949455,0.00119992005639
1.7177479765774912e+18,0.014439846948399998,0.002005396020998,-0.0004579699016400001
1.7177479767774912e+18,0.0115090992383,0.008962272247935,0.0005762667511585
1.7177479769774912e+18,-0.007138475333750001,-0.001546091784265,-0.0003364708507685
1.7177479771774912e+18,-0.018593680312761908,-0.005726235907142856,-0.0021337799760938097
1.7177479773774912e+18,-0.014185174252099997,0.00215958844635,0.0007468337426860002
1.7177479775774912e+18,-0.01230229958815,-0.0084248289002,-0.0004936610348017501
1.7177479777774912e+18,-0.02013638164005,-0.001434243202745,0.0021802230621849996
1.7177479779774912e+18,-0.006615032499999,-0.0017743538016704997,-0.000934273377005
1.7177479781774912e+18,-0.00076766329584,-0.0017710349814299999,0.0003711340774215
1.7177479783774912e+18,0.0096675364479,-0.00381901817165,-0.0015358072706750004
1.7177479785774912e+18,0.014833391926389999,0.0062862974824654996,0.0011566770261199999
1.7177479787774912e+18,0.020236819095238095,0.006428671501998572,0.0006500036300486477
1.7177479789774912e+18,0.019246603176500003,0.005936526192800001,-8.77151035850001e-06
1.7177479791774912e+18,0.00966543487665,0.0031724556931065004,0.0011295623146070001
1.7177479793774912e+18,0.0008960634498800001,0.00187002221352,-0.001604730519485
1.7177479795774912e+18,-0.006305868385294999,0.00076906286416,-0.00017326875820999996
1.7177479797774912e+18,-0.009406084008800001,-0.0027833894593999996,-0.00023411703296649994
1.7177479799774912e+18,-0.01378193164389,-0.005355743714455,-0.0009525551810249999
1.7177479801774912e+18,-0.009229359350333335,-0.0012619816477238092,-0.0014414922888285717
1.7177479803774912e+18,-0.007524945109750001,-0.005029962397905001,-0.00074560751679
1.7177479805774912e+18,-0.01027152808355,-0.001205154106713,0.00103539111442
1.7177479807774912e+18,-0.005969545469369999,-0.002850739087415,-6.625219242450001e-05
1.7177479809774912e+18,0.007104456512249999,0.0006673177994345001,0.00024782030374550005
1.7177479811774912e+18,0.018936279137,0.005051751085585,0.00012426475290650002
1.7177479813774912e+18,0.01481798068505,0.0035234971554200002,0.000505231192859
1.7177479815774912e+18,0.013331689605857146,0.008332541344857143,0.0011585077514876191
1.7177479817774912e+18,0.011892337212899999,0.004430865671175,0.000529732578399
1.7177479819774912e+18,-0.0062051380777445,0.0003263966529750001,0.0006386136985049999
1.7177479821774912e+18,-0.010099999196715,-0.0049696815486500005,-0.00140560256552
1.7177479823774912e+18,-0.009895353438400001,0.0017255700659500003,-0.000264529278518
1.7177479825774912e+18,-0.010981575562449998,-0.00766791307845,-0.00178499274184
1.7177479827774912e+18,-0.011223687813305502,-0.004220101808029999,-0.00047661017154499997
1.7177479829774912e+18,-0.00676568505509524,-0.002852499230057143,-0.001933592183176191
1.7177479831774912e+18,-0.001567302789815,-0.0012936981626549997,0.000815485510955
1.7177479833774912e+18,0.00394038814389,-0.0006464695267315001,1.4081277154450004e-05
1.7177479835774912e+18,0.015628238685004996,-0.0008465469233000001,-0.0008940129307599999
1.7177479837774912e+18,0.011879816698150001,-0.00753402236185,0.007198987656200001
1.7177479839774912e+18,0.01639293596162,-0.012609795573749999,-0.00237612460048
1.7177479841774912e+18,-0.11584602575150497,0.0123768804595,0.010996769647799998
1.7177479843774912e+18,-0.10309245735550002,0.0046069307136,-0.026087753486999998
1.7177479845774912e+18,-0.056902979278095234,0.012462021871714286,-0.009072457828009525
1.7177479847774912e+18,-0.04206803115049999,0.03459522044105,0.014284558034949999
1.7177479849774912e+18,-0.03951560445149999,-0.024237016751764994,-0.00331444963862
1.7177479851774912e+18,-0.024758382496649998,-0.08225066662099999,-0.0508079040775
1.7177479853774912e+18,-0.025886537716850004,0.0178230087045,-0.0029201550763000004
1.7177479855774912e+18,-0.013590570638295002,0.008227090350399997,-0.005681137356549999
1.7177479857774912e+18,0.0002733154308199998,0.006872627115685,0.00484820577485
1.7177479859774912e+18,0.01604742831715238,0.017529253471,0.004180176471871428
1.7177479861774912e+18,0.031685817893,0.026223323657750004,-0.00502183589873
1.7177479863774912e+18,0.0515870839365,-0.0030410671666800003,-0.002479804912555
1.7177479865774912e+18,0.0759144501755,-0.015110304730608001,-0.0046008280245500004
1.7177479867774912e+18,0.040678363619000006,-0.01302464273761,-0.00228946309076
1.7177479869774912e+18,0.01787440973485,-0.007000608940445,-0.000494522508075
1.7177479871774912e+18,0.009139427386852498,0.001332163938795,0.0020034597313499996
1.7177479873774912e+18,0.007691301189380954,0.005818944845638095,7.5540349904761326e-06
1.7177479875774912e+18,0.006183802202700001,0.011732333165500002,0.002718634489925
1.7177479877774912e+18,-0.010095448070550002,0.0007936259728499997,-0.0023677955032522504
1.7177479879774912e+18,-0.0020356219522700003,0.01360408121255,-0.00060727880344
1.7177479881774912e+18,0.0003326091769654,0.00800449058875,0.0005813470227637499
1.7177479883774912e+18,-0.025903302719877497,-0.0005634112746499998,-0.0011503126356750004
1.7177479885774912e+18,-0.055157042342000015,0.015993628476944,0.0023023848652000004
1.7177479887774912e+18,-0.011947707249529496,0.011351957871580002,0.00301007588865
1.7177479889774912e+18,0.011996320738723334,-0.007475342234538094,-0.0034819907906238094
1.7177479891774912e+18,0.0037931055989000005,-0.0030762384411530002,0.0009956402238565003
1.7177479893774912e+18,-0.015153057780049998,-0.011999827507450002,0.0003237721742550001
1.7177479895774912e+18,-0.0100515816699,-0.017277748277049997,0.0009384318717949999
1.7177479897774912e+18,-0.010065753291945,-0.009657910303115,-0.013206441944164999
1.7177479899774912e+18,-0.004845164640700001,0.006131925422575,0.0039954537875499995
1.7177479901774912e+18,-0.0024914925797500003,-9.76047595e-05,-0.003550265170875
1.7177479903774912e+18,-0.0018612263406952382,0.005008870879997477,0.0002907398494714284
1.7177479905774912e+18,-0.010234048107659998,-0.02381546786025,0.005093751335955498
1.7177479907774912e+18,0.00036696121652999983,0.0032116611027499997,-0.0034156323760400004
1.7177479909774912e+18,0.007257191782175,0.006998833815554999,0.0028246750588780006
1.7177479911774912e+18,0.00720007019085,-0.0010161517775499995,-0.0006270743323899998
1.7177479913774912e+18,0.013132102793100004,0.00887660525105,0.0012917407555750001
1.7177479915774912e+18,0.008591945099485,0.000792703125605,0.000468860426925
1.7177479917774912e+18,0.009250553078342858,-0.0009302619479190477,0.0005469098465799999
1.7177479919774912e+18,0.0014681929198535003,-0.0017119517956800002,0.0010544800666449998
1.7177479921774912e+18,0.0005210095343849997,0.0022029497544675002,-0.0012795408257249997
1.7177479923774912e+18,-0.0004132608768500001,-0.0020519818409649995,-0.002260666491949
1.7177479925774912e+18,0.000682417885465,0.0001551572116650001,-0.0005639907670461502
1.7177479927774912e+18,0.0005356537671695,-0.0024002608784599996,-0.0011837314057649999
1.7177479929774912e+18,-0.000771851258395,-0.0016137926897725001,-0.0009865105734329998
1.7177479931774912e+18,0.0037413902321700005,0.0006447222200354999,8.941185653850004e-05
1.7177479933774912e+18,-0.0054615087597952375,-0.005796525084190476,-0.0011342825989147619
1.7177479935774912e+18,-0.0055959715211735,-0.003012975538239999,-0.0008404532564600002
1.7177479937774912e+18,0.00211295573535,0.0003781360224419997,-0.0009189145639584999
1.7177479939774912e+18,-0.0033601075413500006,0.0010324304574600002,0.0002016399289325
1.7177479941774912e+18,-0.00710822181695,-0.0059356395856,-0.0008976861951080003
1.7177479943774912e+18,-0.0671323481935,-0.012803137750937998,-0.012757298012864998
1.7177479945774912e+18,0.09095872213445,-0.035092160199,-0.08780953837800001
1.7177479947774912e+18,-0.3956587967547619,0.42435815646666664,0.1483692937639524
1.7177479949774912e+18,-0.6758925843829999,-0.21689794520485,-0.1773134016894
1.7177479951774912e+18,0.3577233916383,-0.102316258105,-0.08573265624171002
1.7177479953774912e+18,1.0596343039949998,-0.135181197699,0.04559370968444999
1.7177479955774912e+18,0.32122386117300006,0.1349281351149,0.065099246525
1.7177479957774912e+18,0.22031837247500002,0.240975196662,0.072738874016665
1.7177479959774912e+18,0.08808617256599999,-0.25576726695525004,-0.08745088793555
1.7177479961774912e+18,0.11995731515857144,-0.08066006439476191,-0.13057819722285716
1.7177479963774912e+18,-0.310096748172,-0.05207572935555001,0.052055518317650006
1.7177479965774912e+18,-0.90990074274,0.12376769878929998,0.048953082082
1.7177479967774912e+18,-0.5571414269599999,0.024576355191699994,0.0021439265705
1.7177479969774912e+18,0.05325570554000001,0.11478059033665,-0.007630456878746
1.7177479971774912e+18,0.2158590117505,-0.25131829082449997,-0.30462146028500003
1.7177479973774912e+18,0.5570670254600001,-0.34845843985550007,-0.19057934211465002
1.7177479975774912e+18,0.632664186485,0.42855837941249997,0.21933388561100003
1.7177479977774912e+18,-0.06451930131728571,0.18693671216142863,0.1283053961970476
1.7177479979774912e+18,-1.0897284568199999,-0.3951721817199999,-0.034218957928000004
1.7177479981774912e+18,-0.390372938293,0.18981628901600003,-0.0007079906800000014
1.7177479983774912e+18,0.16709270105050003,0.18323077372000002,-0.041756791358249994
1.7177479985774912e+18,0.46268786937999995,0.22992148549350003,0.08722924673094998
1.7177479987774912e+18,0.4440043136449999,0.048152398322449996,0.14673343347569998
1.7177479989774912e+18,0.233526317409,-0.155631736109,-0.0353287819267
1.7177479991774912e+18,0.1664716525090476,-0.040846331264285725,0.052193088460380954
1.7177479993774912e+18,-0.30028690202295,-0.03785581291649999,-0.06226327554590001
1.7177479995774912e+18,-0.9573598891899999,-0.016655204030000002,-0.107890483937
1.7177479997774912e+18,-0.69098034578,-0.06819940148595001,-0.1633770821605
1.7177479999774912e+18,0.015740906263950007,-0.13709870927115,-0.0388418799735
1.7177480001774912e+18,-0.11311407853649998,0.0620951965851,-0.011325508819049996
1.7177480003774912e+18,0.64237642586,0.3145228828265,0.006723562465460001
1.7177480005774912e+18,0.552581596947619,0.43230783939523804,0.14145275355285716
1.7177480007774912e+18,0.31345283985999994,-0.03305916949405,0.0429144474576285
1.7177480009774912e+18,0.21057293787,0.029509475673134992,0.025213333122500008
1.7177480011774912e+18,-0.4260760287865001,-0.25654609260850003,-0.0114068284047
1.7177480013774912e+18,-0.618829017865,-0.2320565112,-0.07786692652184998
1.7177480015774912e+18,-0.4509281785190001,0.1092455645055,-0.0753079141935
1.7177480017774912e+18,0.11271526422,-0.0413032009735,0.0012778765701499952
1.7177480019774912e+18,-0.5196450954330001,-0.11385264181464998,0.026248016205000002
1.7177480021774912e+18,0.33661215752047613,-0.35607749046190473,-0.10591059817142856
1.7177480023774912e+18,0.40187917536500006,-0.11436636861245002,0.09697227885024999
1.7177480025774912e+18,0.7981683522749999,-0.08582375290650002,-0.09028264954774999
1.7177480027774912e+18,0.36260396437700004,0.03332640826124999,-0.02675572303175
1.7177480029774912e+18,-0.21084592538155,-0.21404068991400002,0.007376504644249995
1.7177480031774912e+18,-0.569372572,0.11802111021379998,0.074535839282835
1.7177480033774912e+18,-0.49356715083499997,-0.185869620374,0.05888368049855001
1.7177480035774912e+18,-0.16915132662980953,-0.33179464439047623,-0.06899475447809048
1.7177480037774912e+18,0.74163983616,0.13545401245299998,-0.2122004739955
1.7177480039774912e+18,0.2134821886605,0.40043139010500006,0.06076292171879999
1.7177480041774912e+18,0.17021407503849997,0.25537567808499995,0.0754884842295
1.7177480043774912e+18,0.015005588740850001,0.11441346145849998,0.04884339391760002
1.7177480045774912e+18,0.010203185875165,0.026932546240440003,-0.00033921711210000045
1.7177480047774912e+18,0.048120902013000004,0.00811437168188,0.020848994749
1.7177480049774912e+18,0.04374440005571428,0.0034513571742857143,-0.004379067979357143
1.7177480051774912e+18,0.0206849511721,0.0481242260884,0.0010087631175499999
1.7177480053774912e+18,-0.004318261928751551,0.08862491697899999,0.0035821923291149992
1.7177480055774912e+18,0.0010845912679400002,0.036583698819650005,-0.0023903600289700002
1.7177480057774912e+18,-0.020080122840885,-0.01949512794416,-0.0051054846498
1.7177480059774912e+18,-0.0220545149403,-0.0284915573895,0.001008421333765
1.7177480061774912e+18,-0.010219369293099998,-0.0197165897245455,-0.012784645449849998
1.7177480063774912e+18,-0.01808489611195,0.003255438362375,0.004932539559850001
1.7177480065774912e+18,-0.004914716687266666,-0.011006734333666666,0.0015842975117380954
1.7177480067774912e+18,0.0061320587693,0.0086497904611855,0.0012239080272200002
1.7177480069774912e+18,0.024985514674000002,0.0025087034449,-0.00429216244995
1.7177480071774912e+18,0.026561530819900002,-0.002099739096565,-0.0008639297214750001
1.7177480073774912e+18,0.018709609401095,0.00846996264334,-0.004443647817035001
1.7177480075774912e+18,0.015603952203399999,0.008453095389805002,0.002606150513705
1.7177480077774912e+18,-0.0034307162742,-0.005131557618765,-0.0024154676585314994
1.7177480079774912e+18,-0.0031917948646809522,0.00799688324338095,-0.0016841600936023805
1.7177480081774912e+18,-0.0167449561642,-0.006127127003797502,0.003815586166735001
1.7177480083774912e+18,0.00032027939449500006,-0.002008427528525001,0.002347440773196
1.7177480085774912e+18,0.00150392399467,-0.003940712788603,-0.0044341635308
1.7177480087774912e+18,-0.0013625621645800003,-0.004275230166781,-0.00244124432209
1.7177480089774912e+18,-8.300284951499972e-05,0.0025652112963324997,-0.00023893134796000018
1.7177480091774912e+18,-0.00476597111552,0.00632501065285,0.0079125638357
1.7177480093774912e+18,0.004807776699674285,-0.005052451343480477,-0.008855330159585714
1.7177480095774912e+18,-0.003873861379775,0.0201657136678,0.0030904730085050004
1.7177480097774912e+18,-0.012825385166675002,-0.00815432561772,-0.004843345657515
1.7177480099774912e+18,0.020609306578100003,0.009799493232645,0.0017101728765550005
1.7177480101774912e+18,0.0395864464335,0.022289823741,0.00423126869139
1.7177480103774912e+18,0.028938008937600002,0.0176730697512,0.0018349247868149998
1.7177480105774912e+18,0.0269606803545,0.029168542474500004,-0.0022652996819715
1.7177480107774912e+18,-0.0072706518008999995,0.012155192415649997,0.0018434283325055
1.7177480109774912e+18,-0.006764076716285715,-0.007868425887085716,-0.0002553241130000001
1.7177480111774912e+18,-0.0032624560552399996,0.0055472187461,-0.001644561474835
1.7177480113774912e+18,-0.011389849037659999,-0.0036132666045399996,-0.004728575953345001
1.7177480115774912e+18,0.003944499918349999,0.0019591896445705003,-0.003473463817014999
1.7177480117774912e+18,-1.4574354219999921e-05,0.0009265494061759999,-0.0035053311729000003
1.7177480119774912e+18,0.01698821826191,0.030385078304025,-0.015493649302815002
1.7177480121774912e+18,-0.0281572918764,0.0431631246115,0.0018521954652399996
1.7177480123774912e+18,-0.0663648742892381,-0.028001530229428577,0.019862066932766667
1.7177480125774912e+18,0.0346342796458,-0.018720744234920005,0.0022102546180900002
1.7177480127774912e+18,0.02074715054995,0.014010069403449999,0.011291714523900001
1.7177480129774912e+18,-0.009794734255400001,-0.008912563835299998,-0.0004563888774999999
1.7177480131774912e+18,-0.00600586743697,-0.0066581549707750015,0.002184887655
1.7177480133774912e+18,0.0009287303662399999,0.00133139130776,0.0012992372504250001
1.7177480135774912e+18,-0.00936833762343,-0.0041819042876335,0.003034498350447405
1.7177480137774912e+18,-0.0002416010577142856,-0.016496832404442857,-0.002276970405861905
1.7177480139774912e+18,-0.030191324279,-0.0017691403623,0.008168640313250002
1.7177480141774912e+18,-0.033988254264574996,-0.02084107436305,0.00012210117415500005
1.7177480143774912e+18,0.007224386378285,-0.0006702619192450002,0.0013349934774795002
1.7177480145774912e+18,0.033912014308999996,2.688964593499997e-05,0.0022034359047300002
1.7177480147774912e+18,0.0241779182805,0.00887799210565,-9.665398396949991e-05
1.7177480149774912e+18,0.016398601978,0.014088602736550002,-0.0013897256576000001
1.7177480151774912e+18,0.01346053965157,0.00911102129625,0.002514550229497
1.7177480153774912e+18,-0.011461816517428572,-0.005461818083809524,-0.00504418443604762
1.7177480155774912e+18,-0.014376339782200001,-0.0017344729044150003,-0.002017045486705
1.7177480157774912e+18,-0.0132136831526,-0.007349469932069999,-0.0023016232299
1.7177480159774912e+18,-0.016606515607795,-0.015225035569599999,-0.006239120545815
1.7177480161774912e+18,-0.012582827825849999,-0.003434412368010001,-0.0002657572855404999
1.7177480163774912e+18,-0.007552943922929998,-0.00478766208396,-0.0036909481277299996
1.7177480165774912e+18,-0.010395896772550001,-0.0003268594330300002,-0.00163416037108345
1.7177480167774912e+18,-0.0055951954818571435,0.00046556947434952395,0.0009234374766238097
1.7177480169774912e+18,0.00763880271106,-0.0020023469229593495,-0.0018698625268299997
1.7177480171774912e+18,0.01649293948855,0.0088562576326015,0.0014383510454314997
1.7177480173774912e+18,0.0230608005995,0.01030320413445,0.0012400813399464999
1.7177480175774912e+18,0.024095837353,0.00981229583219,0.0036488794720885
1.7177480177774912e+18,0.012899519061050002,0.006761306443314999,0.0001709405623625
1.7177480179774912e+18,0.00825229189332,0.0101003563725,0.0027779817115525
1.7177480181774912e+18,-0.00770510804067619,-0.002312770223952381,-0.0024423246838
1.7177480183774912e+18,-0.018400973489,-0.009957694309240001,-0.00318198075985
1.7177480185774912e+18,-0.010010165831865,-0.00694623230983,-0.0006170683074400001
1.7177480187774912e+18,-0.006902034917450001,-0.005153787380595001,-0.0018979856279399995
1.7177480189774912e+18,-0.012920687396545,0.0009812097184,0.0015335021191500002
1.7177480191774912e+18,-0.010013777075550002,-0.0021610007271550004,-0.00053446216043
1.7177480193774912e+18,-0.001671784173295,-0.001116070442384,-0.00040888629170999987
1.7177480195774912e+18,0.010820772705440001,0.000869896402644,-0.00075437420745
1.7177480197774912e+18,0.017063866060000002,0.008439052672428572,0.0024089955592238093
1.7177480199774912e+18,0.019726199935,0.003082638862535,0.0012913809855949997
1.7177480201774912e+18,0.014078987881145,0.0069878667825,0.0010334888822265
1.7177480203774912e+18,0.009895487897650001,0.006003055826369499,-0.0011631409638135
1.7177480205774912e+18,-0.0050252538464,0.003181300777905,0.00034714160140000003
1.7177480207774912e+18,-0.019966309621949997,-0.009814233879495,-0.0019525106296999998
1.7177480209774912e+18,-0.021933282818999998,-0.007011406647490001,-0.0031204054657749994
1.7177480211774912e+18,-0.01825534876095238,-0.010264788953761905,-0.004956170816904762
1.7177480213774912e+18,-0.019872136809199997,-0.005465277447929999,0.0018247090163599996
1.7177480215774912e+18,-0.0071221392432150015,-0.007192687829949998,-0.0030178739223399994
1.7177480217774912e+18,0.00017513683712999995,-0.0010386215930550003,0.0004927997652499999
1.7177480219774912e+18,0.00095348705375,-0.001670315477625,0.00017976778331499992
1.7177480221774912e+18,0.022720458032499998,0.00707320520876,0.0005118973903049999
1.7177480223774912e+18,0.029371223691999997,0.01786675555675,0.0030229463824000004
1.7177480225774912e+18,0.016113185243438098,0.007491738735266666,0.0009647126231666665
1.7177480227774912e+18,-0.003863169091755,0.002453564619695,8.904708663299984e-05
1.7177480229774912e+18,2.3519684565000294e-05,-0.011476399867449999,-0.0027879204367949996
1.7177480231774912e+18,-0.0040155168942199995,-0.0045452029791699985,-0.0022074565872499995
1.7177480233774912e+18,-0.004724098066745,0.00028962435908499995,-7.110065788999988e-05
1.7177480235774912e+18,-0.0084980660523,-2.097629474999939e-06,-0.000916397944085
1.7177480237774912e+18,0.032392868748499996,0.0032100439884,0.0044862600163310005
1.7177480239774912e+18,-0.06590271262825,0.01521056906865,-0.010662242269825501
1.7177480241774912e+18,-0.002130612044999999,-0.012399201912619052,-0.0029295118017285716
1.7177480243774912e+18,0.0369617348535,0.00683547396895,0.007079141005185001
1.7177480245774912e+18,0.026868788596150002,0.000533192284625,0.0107869406933
1.7177480247774912e+18,0.02443666821355,0.0019285103430850003,0.008485462352489998
1.7177480249774912e+18,0.016478467319145002,0.008527481858475,-0.0012649745214800001
1.7177480251774912e+18,-0.004799984206209999,-0.006805763555949999,-0.00040239141110000017
1.7177480253774912e+18,-0.0058413102349399995,-0.0012289902190000001,0.0032594703836000003
1.7177480255774912e+18,-0.004604793466847619,-0.005775569084080952,-0.0027208063596047623
1.7177480257774912e+18,-0.012362780052849997,-0.0017398042428549997,-0.0021299618643860004
1.7177480259774912e+18,-0.004457915772165,-0.004129073605520001,-0.001446022873365
1.7177480261774912e+18,0.005465131823175,0.0031397357641800004,-0.0007816094090799999
1.7177480263774912e+18,-0.00016166917049999994,0.007764757448249999,-0.007692225242600001
1.7177480265774912e+18,0.0023053536567650005,0.0009295599534899996,0.001246486057075
1.7177480267774912e+18,-0.0004631503247000001,-0.0002810854289419999,0.00038406683587
1.7177480269774912e+18,-0.014859933161761905,-0.004174038180647619,-0.0015922962754047621
1.7177480271774912e+18,-0.01070818903375,-0.0029364358983,-0.002645809156685
1.7177480273774912e+18,-0.01456989790405,-0.006081779976385,-0.001579505868725
1.7177480275774912e+18,-0.0178869998116,-0.004953406122664999,-0.0003336109803550001
1.7177480277774912e+18,0.008442366545095,-0.0018931825528999999,0.000699120055603
1.7177480279774912e+18,0.013408363819799998,0.0115881907296,0.002222921955355
1.7177480281774912e+18,0.018170398625300004,0.002752611017975,0.001475831779121
1.7177480283774912e+18,0.021586126089000002,0.011773838103349997,0.002640024514365
1.7177480285774912e+18,0.004319743148304762,0.005428637333380952,-0.0004401213954566667
1.7177480287774912e+18,-0.0041349013971,0.0002039821004434999,-0.0025237148394299997
1.7177480289774912e+18,-0.0088269858155,5.276438314999986e-05,0.0006723078782280001
1.7177480291774912e+18,-0.01924070714705,-0.012897578220055,-0.0035461315302500003
1.7177480293774912e+18,-0.013109349739449999,-0.010881439410099999,-0.0038486175355349995
1.7177480295774912e+18,-0.010346016125000001,-0.007238771276999999,5.582073939250003e-05
1.7177480297774912e+18,-0.01402832338651,-0.007203601010299999,0.000691956322332
1.7177480299774912e+18,-0.007501418009558573,-0.005199481955142856,-0.001179634560137143
1.7177480301774912e+18,-0.001337532802477,-0.0014778825396549997,0.0008724785875000001
1.7177480303774912e+18,0.00617695811135,-0.000222089106945,0.0011025190121209999
1.7177480305774912e+18,0.021605777740000002,0.007931692374609998,0.00029019076608500003
1.7177480307774912e+18,0.029362939112000004,0.01110308900175,0.0045005412538
1.7177480309774912e+18,0.0167566385362,0.009139887901599999,0.0013420829550250001
1.7177480311774912e+18,0.00955479870885,0.013248088815950002,0.0009505541878144999
1.7177480313774912e+18,-0.0027418129749857143,0.005855517705657141,7.037063388190486e-05
1.7177480315774912e+18,-0.0184975997554,-0.008300821739600003,-0.0023636626720950006
1.7177480317774912e+18,-0.01976282307835,-0.00043037094897649977,-0.004305654600915
1.7177480319774912e+18,-0.009348111914649999,-0.006862699589359001,-0.0014641504037369998
1.7177480321774912e+18,-0.018750192224249996,0.001920416869437,0.0015632242663360003
1.7177480323774912e+18,-0.009121402259607,-0.0070811564339350016,-0.0006065580702900002
1.7177480325774912e+18,-0.0069291238846,-0.0012072916490200002,0.003940441075019
1.7177480327774912e+18,-0.0010848293925185002,-0.0009755569859449999,-0.000846396270261
1.7177480329774912e+18,0.004909804032938096,-0.0017048475950804764,-0.0005485508368619048
1.7177480331774912e+18,0.01714631018665,0.0122790708912,0.0028140042558899995
1.7177480333774912e+18,0.018948954204499997,0.00786841504714,0.0016671904246430003
1.7177480335774912e+18,0.014589880811022351,0.008007561404109999,4.1521352206500074e-05
1.7177480337774912e+18,0.011575905395800001,0.01014952124105,0.0021337570389475
1.7177480339774912e+18,0.00167483787508305,0.0020636062253859997,0.0004315862025505001
1.7177480341774912e+18,-0.01374348876345,-0.007505447120549999,-0.002578393614335
1.7177480343774912e+18,-0.016847424786190474,-0.007883347127714286,-0.0019148257837790475
1.7177480345774912e+18,-0.01260921293775,-0.014761746582500002,-0.00225521613608
1.7177480347774912e+18,-0.011933079674564999,-0.00827792111075,0.0004580637149089998
1.7177480349774912e+18,-0.006718959822946001,-0.005392991844605001,-0.0009400569949799999
1.7177480351774912e+18,-0.0005119891488600001,-0.00024805210992499995,0.0017578574479949999
1.7177480353774912e+18,-0.0030409868545300004,-0.001633602566931,0.0004570003016449999
1.7177480355774912e+18,0.016172506450350004,-0.006471556040690001,-0.0028599649553920003
1.7177480357774912e+18,0.021661011767619046,0.012981953520809523,0.003698915276319049
1.7177480359774912e+18,0.015183655925360001,0.006354453705805001,-0.00056960813236
1.7177480361774912e+18,0.014117103349000001,0.007831646617880002,0.000541178858864
1.7177480363774912e+18,0.012055259442399999,0.0090505861099,0.0005928158062290001
1.7177480365774912e+18,-0.006608121647239999,-0.001330078707221,-0.0012155739706929498
1.7177480367774912e+18,-0.01696811285735,-0.009115533134399998,-0.0020790820010000003
1.7177480369774912e+18,-0.012291308748949998,-0.006547009735500001,-0.003512919775786
1.7177480371774912e+18,-0.012508810708249999,-0.009788695292,-0.0022877241019000003
1.7177480373774912e+18,-0.01623945822971428,-0.009395818048857144,-0.0017267498187428572
1.7177480375774912e+18,-0.006888373923444999,-0.007076480117310001,-0.0016144425841399996
1.7177480377774912e+18,-0.0022132093056250004,-0.0002832710335249999,0.000492174341425
1.7177480379774912e+18,-0.0006873293663999996,-0.0021176197508415004,3.62565043500007e-06
1.7177480381774912e+18,0.0143577884175,0.00781352571248,0.001901905174725
1.7177480383774912e+18,0.022216680086,0.008824568381600001,0.0024909680243325
1.7177480385774912e+18,0.012446073643919999,0.006793656979800002,0.0020782879436815
1.7177480387774912e+18,0.013471908025285714,0.008213451032395238,0.0002878478483857143
1.7177480389774912e+18,0.008220011366468499,0.007703553407449999,0.0008474378263949999
1.7177480391774912e+18,-0.012394396533005,-0.0036497554269200004,-0.0010251233412949998
1.7177480393774912e+18,-0.0148192422697,-0.00907769829535,-0.0018826146376900003
1.7177480395774912e+18,-0.01156576387585,-0.0032314094366599996,-0.001226042408955
1.7177480397774912e+18,-0.01074857932975,-0.006507945759189999,-0.0021462352481695
1.7177480399774912e+18,-0.015734530310200005,-0.010608816705950003,-0.0008834822336100002
1.7177480401774912e+18,-0.006592352899419048,-0.002361115500809524,0.0010017250509380953
1.7177480403774912e+18,0.0004199062911050001,-0.0030877820099700004,-0.0009820958017699999
1.7177480405774912e+18,0.0012712508465399998,-0.0024750269596850003,-0.0004855047095900001
1.7177480407774912e+18,0.012022540218200001,0.0068956321569749995,0.0011969237705290003
1.7177480409774912e+18,0.019805509783499996,0.0073093920598999995,0.0026338353754
1.7177480411774912e+18,0.01400134192372,0.007805812614934998,0.001912317017545
1.7177480413774912e+18,0.015228319540550001,0.006482182873700002,1.6059668744999714e-06
1.7177480415774912e+18,0.0128053656909,0.00933518754325,0.001298074773546
1.7177480417774912e+18,-0.009256917431628573,-0.000754014843652381,-0.0008556603154204761
1.7177480419774912e+18,-0.0146567552,-0.0069908732783,-0.0034123201154355
1.7177480421774912e+18,-0.014635209320700001,-0.0033544412115500003,-0.00130119251552825
1.7177480423774912e+18,-0.013767510210199998,-0.01235671294865,-0.00368692225304
1.7177480425774912e+18,-0.014118299275464999,-0.007198804314605,-0.00250773461301
1.7177480427774912e+18,-0.009601243375800001,-0.003721809381385001,0.00011095599043499998
1.7177480429774912e+18,-0.00299321226485,-0.0042294049869215,0.00046501811601500006
1.7177480431774912e+18,0.005774147331714285,0.0004492650318095239,0.0002965590351190477
1.7177480433774912e+18,0.016697627027,0.0082296250154005,0.0011669231463149999
1.7177480435774912e+18,0.023415802420500002,0.00975746828955,0.0026189713273699995
1.7177480437774912e+18,0.016546832677000002,0.00912289535575,0.0011262984014099998
1.7177480439774912e+18,0.010334489354949999,0.004842549783600001,0.00102364104241
1.7177480441774912e+18,-0.0012258229924,0.006269147980015001,0.00030887062881000015
1.7177480443774912e+18,-0.018143336195999997,-0.008810479217349999,-0.0024890719970024995
1.7177480445774912e+18,-0.022377031123,-0.015221778436285718,-0.0013162505014904765
1.7177480447774912e+18,-0.012719646725300002,-0.0039494732972724,-0.0008500063559450001
1.7177480449774912e+18,-0.006675242708375,-0.0062887439503499995,-0.000316288822725
1.7177480451774912e+18,-0.0073955828465285,-0.00354904784462,0.000266528199351
1.7177480453774912e+18,-0.0054205166723750005,-0.0015493537824500005,-0.0005832922411864998
1.7177480455774912e+18,0.00057844814147,-0.00121176482645,0.0013657995267
1.7177480457774912e+18,0.010751693168875002,0.0052055505744400005,0.00039852523484999996
1.7177480459774912e+18,0.018766344991,0.006078853062549999,0.0010811432090265002
1.7177480461774912e+18,0.02148940023904762,0.01203467222352381,0.002575268370309524
1.7177480463774912e+18,0.016996253840800002,0.0082190620658,0.000521716149485
1.7177480465774912e+18,0.008766872086835001,0.0050538538371049995,0.0013755679712970001
1.7177480467774912e+18,-0.00301223019199,0.004068545834280001,-0.00030583245675000004
1.7177480469774912e+18,-0.01206140187635,-0.006117352226305,-0.00209908710675
1.7177480471774912e+18,-0.01699540778025,-0.00888938540035,-0.0016678940505000003
1.7177480473774912e+18,-0.013412456121499999,-0.0060710831196500005,-0.002008289401405
1.7177480475774912e+18,-0.008256731643619048,-0.007081334280095238,-0.00012238586453809525
1.7177480477774912e+18,-0.009477625103488499,-0.00628167559629,-1.847713715400006e-05
1.7177480479774912e+18,-0.005873660687884999,-0.0048903264571349995,-0.0003556651878925001
1.7177480481774912e+18,-0.0007659368914279999,-0.002212336426575,0.00208379210669
1.7177480483774912e+18,0.00842761557983,0.0019350171845800002,-0.0006457458832250002
1.7177480485774912e+18,0.0195210000965,0.00866994709945,-1.0251079306999975e-05
1.7177480487774912e+18,0.0209971586235,0.0107848954383,0.00164511712497
1.7177480489774912e+18,0.0133344940267,0.008562047291050003,0.0011004878557174997
1.7177480491774912e+18,0.01050829349652381,0.007089440034190476,0.0005246782120857144
1.7177480493774912e+18,0.0038993732511874496,0.00734686588395,-0.00033219612093499985
1.7177480495774912e+18,-0.009477230999149999,-0.0028217784247350003,-0.00146100239374
1.7177480497774912e+18,-0.015611507822945,-0.009475724561599999,-0.0025586303207649997
1.7177480499774912e+18,-0.008958424900699999,-0.00374864110489,-0.000399453286095
1.7177480501774912e+18,-0.006906107009950001,-0.0044893706334499985,-0.0017899592755694998
1.7177480503774912e+18,-0.007153971446747498,-0.0038244625436999998,-0.00049652116139235
1.7177480505774912e+18,-0.0011208508651190479,-0.0009616134199361904,6.009181516476196e-05
1.7177480507774912e+18,-0.0029873205146735003,-0.0023384062337914995,0.00022076119203500003
1.7177480509774912e+18,-0.0060604043662149994,-0.0003195626659650001,-0.0006548920297999999
1.7177480511774912e+18,-0.0002146804298499999,-0.0013583442894770001,-0.00049980271146785
1.7177480513774912e+18,0.001335309722335,-0.0003608822938455,0.00020008652943749993
1.7177480515774912e+18,-0.008504486069474999,-0.002295608096845,-0.000331030180655
1.7177480517774912e+18,-0.007926054406745,-0.00503437283917,0.0005422394548855001
1.7177480519774912e+18,0.010879575081042855,0.003851262664033333,0.0005775646172657143
1.7177480521774912e+18,0.017303200764,0.010265010036300001,0.0016798907891535
1.7177480523774912e+18,0.016304441320450003,0.005912049871300001,0.001523135061135
1.7177480525774912e+18,0.020739242806999996,0.0133357554214,0.002593634149513
1.7177480527774912e+18,0.013153955060600001,0.008348128572249997,0.001524404692395
1.7177480529774912e+18,-0.0018230730433799996,0.004571531072745,0.00095433341341
1.7177480531774912e+18,-0.00683613429995,-0.00083527614479,-2.6339659314999965e-05
1.7177480533774912e+18,-0.00896039191835,-0.005591961019700001,-0.0024343909986600004
1.7177480535774912e+18,-0.008532924372033334,-0.005488147936871428,-0.0013504333216633334
1.7177480537774912e+18,0.0023815398307650004,-0.003911468543845,0.000386857625495
1.7177480539774912e+18,0.00233789802319,-0.0016935401247,-0.0009766274888605001
1.7177480541774912e+18,-0.0035569408902999997,-0.00338734998325,-0.00046304973080500006
1.7177480543774912e+18,-0.0011393605644999998,-0.0002857223501650001,-1.3309519226745062e-05
1.7177480545774912e+18,-0.0028119972853349997,-0.00214816496573,-0.0006842829869230001
1.7177480547774912e+18,-0.0056121212133150005,0.0005901628584100002,-0.00021469441693400013
1.7177480549774912e+18,-0.00024979714590476197,0.001659083579409524,0.00047785713376666673
1.7177480551774912e+18,0.00010324152539399998,-0.0027115897914910003,-0.0006766598904039999
1.7177480553774912e+18,-0.002583122305685001,-0.0010730928973959998,0.0009410497498259999
1.7177480555774912e+18,-0.0038660692313400003,-0.0042186339968275,-0.0015490266145250001
1.7177480557774912e+18,0.0008991840557449997,0.0016504267928269998,0.001089040655694
1.7177480559774912e+18,-0.006645430135120001,-0.0015756207865599999,-1.873400757299985e-05
1.7177480561774912e+18,-0.0071756637217500014,-0.001247014163495,-0.0010631577694449998
1.7177480563774912e+18,-0.007893011550114284,0.0003314279685095238,0.00011398077819523825
1.7177480565774912e+18,-0.033853432769499994,0.001206142827931,0.005542236135589999
1.7177480567774912e+18,0.00413040058985,-0.005914685316295001,-0.00243654707441
1.7177480569774912e+18,0.0229534250675,0.011119971517399999,0.00232280375207
1.7177480571774912e+18,0.02384386525985,0.00904996201915,3.2115972091499933e-05
1.7177480573774912e+18,0.005396112348455,0.012976845726850001,0.00717513168925
1.7177480575774912e+18,0.014741525427149998,0.012905221084,-0.005608550958898
1.7177480577774912e+18,-0.002303862536791,0.0041467103867,-0.00151167672577
1.7177480579774912e+18,-0.004110300633461905,-0.005172732618714287,-0.0015709511104714286
1.7177480581774912e+18,-0.000930993005775,0.0006361828884790001,4.90318342915e-05
1.7177480583774912e+18,-0.0068465722320400005,-0.0037599768550100007,-0.001286669797277
1.7177480585774912e+18,-0.008262975414899999,-0.004926721117,-0.0019231207844589999
1.7177480587774912e+18,-0.0068049520484000005,-0.0005550095578530001,-0.0010204769030400002
1.7177480589774912e+18,-0.01953608092185,-0.0076166342366164996,-0.0005548222340370001
1.7177480591774912e+18,-0.033199005759499994,-0.0093262236328,-0.000709309301045
1.7177480593774912e+18,-0.046928817721,0.014710795356380953,-0.00332216157947619
1.7177480595774912e+18,-0.07180970535745,0.043423780797999995,-0.014176366419730002
1.7177480597774912e+18,0.04464181156529999,0.07726587212830001,0.014438553701043497
1.7177480599774912e+18,-0.01393784228645,-0.049149442836499996,-0.0090597240252
1.7177480601774912e+18,-0.007059104822199999,0.012695681931900002,0.0041570708502249995
1.7177480603774912e+18,-0.008231855928899998,0.063284851005,0.011289837746922198
1.7177480605774912e+18,-0.017196651338800002,0.0020467927800000003,-0.0030576414428499996
1.7177480607774912e+18,-0.03911468732571429,0.012543718573952381,-0.01893762272871428
1.7177480609774912e+18,-0.03633173150025,0.01029562778955,0.01278182363555
1.7177480611774912e+18,-0.0022140544835849998,0.000830141693805,0.0092774140411
1.7177480613774912e+18,-0.01295814369795,0.007525421760295001,-0.004793340107556001
1.7177480615774912e+18,-0.023616582761500002,-0.01763756129687,-0.012581758224550002
1.7177480617774912e+18,0.006290528181499997,-0.059894857013750004,0.0033984508371499994
1.7177480619774912e+18,0.13727286346600004,-0.052787625417999993,-0.08036592602399999
1.7177480621774912e+18,0.04587379160795,-0.008966254629699999,-0.12249772362400002
1.7177480623774912e+18,-0.0002030335486285711,0.042181469046514285,-0.04200398410947619
1.7177480625774912e+18,-0.035719836410159994,0.008416117758,0.0484202397994
1.7177480627774912e+18,-0.006638030626649999,-0.074199705944,0.054659861233499994
1.7177480629774912e+18,-0.013955659746150002,-0.05345445163400001,0.003474464675115
1.7177480631774912e+18,-0.04939549689560001,0.087246914757,5.103895754999975e-05
1.7177480633774912e+18,-0.7141714572849999,-0.1211127894961,-0.0022555268843500015
1.7177480635774912e+18,-0.8019924536299999,-0.13853537248086503,-0.0536115673305
1.7177480637774912e+18,0.3420738046557143,0.5782760608714286,0.28445639639047615
1.7177480639774912e+18,0.47814594656500004,0.3648411130575,0.067398502495
1.7177480641774912e+18,0.46156366019500006,-0.3266314715185,-0.192385749147
1.7177480643774912e+18,0.4744903400450001,0.012516792446060002,-0.05396539678090001
1.7177480645774912e+18,0.390862356861,-0.4678926020845,-0.033977595436
1.7177480647774912e+18,-0.13320849277133,-0.05222471843315,0.19399150525403502
1.7177480649774912e+18,-0.840701697725,0.28885473361844993,0.08886355937054999
1.7177480651774912e+18,-0.5760047038380952,-0.16406115627833331,-0.20204803472523808
1.7177480653774912e+18,-0.0008070230340000033,-0.29519242280345,-0.07567035825900001
1.7177480655774912e+18,0.23713637665905002,-0.12226936314899998,0.136292055237
1.7177480657774912e+18,0.42531220317,-0.3457303571927,-0.1138056628325
1.7177480659774912e+18,0.4857896491849999,0.0199414059788,0.04684161297835
1.7177480661774912e+18,0.49283173653049994,0.2736233174732,0.11970128287728998
1.7177480663774912e+18,0.0011678051399799977,0.053174532678,-0.02225581435950001
1.7177480665774912e+18,-0.594276453359,0.12636177814115,-0.061748101764050004
1.7177480667774912e+18,-0.8064981528523809,0.4012601618821096,-0.062193504144761914
1.7177480669774912e+18,-0.009559510556149996,0.09228207943949998,-0.042946365253599995
1.7177480671774912e+18,0.1085042894835,-0.016255463198000003,-0.0006715396294000008
1.7177480673774912e+18,0.15411288319479996,0.111965958873755,0.135740236375
1.7177480675774912e+18,0.3438148478605,-0.027120885394999995,-0.027067151323849993
1.7177480677774912e+18,0.394115132617,-0.0008339138536499896,0.04325431823624999
1.7177480679774912e+18,0.20704823443276998,-0.130106837395,0.009986671712499997
1.7177480681774912e+18,-0.20284718231190477,-0.035989438983571424,0.08738545789809524
1.7177480683774912e+18,-0.8056477069749999,-0.108476400296,-0.25948679595299995
1.7177480685774912e+18,-0.49759546239800007,-0.14988176552399998,-0.1834859516555
1.7177480687774912e+18,0.30661333016,-0.22623648420000003,-0.08754718890150001
1.7177480689774912e+18,0.023170284746500007,-0.110643145735,0.03272772170849999
1.7177480691774912e+18,0.16332366931950001,0.026364597330000007,-0.02325533066445
1.7177480693774912e+18,0.47211890034899995,-0.3721510209135,-0.07429922767369998
1.7177480695774912e+18,0.36557102274285713,-0.3183257699638095,0.07246010498238097
1.7177480697774912e+18,0.326807890085,-0.138556804129,-0.082277919358
1.7177480699774912e+18,0.42811462506,0.20226989057145,0.021309210454849997
1.7177480701774912e+18,0.23228682800999997,0.23169924766000002,-0.0430129984622
1.7177480703774912e+18,-0.596749494246,0.3249105334149999,0.10027355664200002
1.7177480705774912e+18,-0.9261795803949999,0.5487988852099999,-0.12998168746500002
1.7177480707774912e+18,-0.10555072625720999,-0.1400019027287,0.0900912662998
1.7177480709774912e+18,-0.09576563881480002,0.021626358197500008,0.0946338236456
1.7177480711774912e+18,0.06331671278928572,0.6715662394285713,0.1230355654315238
1.7177480713774912e+18,0.17537345310064997,0.48508730176899995,0.0542693435215
1.7177480715774912e+18,0.46367797554,0.0039970981954500166,-0.020360715110050005
1.7177480717774912e+18,0.46444077788,-0.23381260633300002,-0.0378677275456
1.7177480719774912e+18,0.3141012266205,-0.32540075556,-0.006765208253794999
1.7177480721774912e+18,-0.52792183869285,0.28745049126350003,-0.03391548316025
1.7177480723774912e+18,-0.5060399636499999,0.0019229286057300034,-0.09049595258750001
1.7177480725774912e+18,-0.1351564356977143,-0.12527414677571427,0.060031674887142866
1.7177480727774912e+18,-0.0340435301515,-0.539582584805,0.010941411406874995
1.7177480729774912e+18,0.08256218784205,-0.165868540536,-0.12400145352054999
1.7177480731774912e+18,0.150657631832,-0.06272827835565001,0.03878001147475
1.7177480733774912e+18,0.10952922608550002,0.07735019534014999,0.051003909296999994
1.7177480735774912e+18,0.10674399249300001,0.05735844450642501,0.00594061793515
1.7177480737774912e+18,0.0633399782705,-0.052821809239999996,0.014832596480816997
1.7177480739774912e+18,0.0121118962641,0.024679848981905,0.013983643170725002
1.7177480741774912e+18,0.00835613552757143,0.014199571806095239,-0.000506260233171429
1.7177480743774912e+18,-0.01946969595755,0.009720146405844999,-0.002452067029725
1.7177480745774912e+18,-0.02680419073661,-0.022243634564150003,-0.0054003921692500016
1.7177480747774912e+18,-0.004856340392,-0.020921583514865,-0.00891906705152
1.7177480749774912e+18,-0.027810653835185002,-0.004584479821260001,0.0257266798129
1.7177480751774912e+18,-0.027596989530450006,0.00215796305585,-0.0214119032505
1.7177480753774912e+18,0.004899396762274999,-0.0042430574895,0.0016950367252999998
1.7177480755774912e+18,0.0423078015452381,-0.0030492821028047616,-0.007984766709157144
1.7177480757774912e+18,0.004760438482400003,0.018672837266184995,0.006685276236099998
1.7177480759774912e+18,0.07934642498454546,-0.02209347439036364,0.003888998054390908
1.7177480761774912e+18,,,
