Timestamps,Acc_X,Acc_Y,Acc_Z
1.7176115064483968e+18,3.6346517028500003,8.7165089264,2.37337454225
1.7176115066483968e+18,3.68138452155,8.7331168899,2.5915383682000006
1.7176115068483968e+18,3.6359539948,9.190520713800002,2.58623190315
1.7176115070483968e+18,0.9698257370669999,10.041403793899999,2.0985535355
1.7176115072483968e+18,-2.6600883178650006,9.016747077900002,1.38938825225
1.7176115074483968e+18,-5.1406624374500005,7.6038202744,0.8980874176199999
1.7176115076483968e+18,-5.277777305599999,7.745837448200001,0.914186439525
1.7176115078483968e+18,-5.5275553894,8.2467108765,1.30391599275
1.7176115080483968e+18,-4.615749000399999,8.044653556900002,1.45177102665
1.7176115082483968e+18,-6.4350058364,6.791938590949999,-1.67655857848
1.7176115084483968e+18,-7.0143610611,7.153242256099999,-2.043745010375
1.7176115086483968e+18,-6.944157051350001,8.0038334429,-2.14737451168
1.7176115088483968e+18,-5.9787695847,6.0571241454,-0.76671311184
1.7176115090483968e+18,-8.5818489533,2.9412860640999994,-1.7916317825499999
1.7176115092483968e+18,-7.540464523350001,3.070834167335,-1.2681852950249999
1.7176115094483968e+18,-8.53882093055,2.2304292984450003,-1.9344797286749997
1.7176115096483968e+18,-10.551131309450001,2.7651922531499995,-2.2515279235
1.7176115098483968e+18,-11.5759526835,2.231522026,-2.09935437025
1.7176115100483968e+18,-10.75359042368421,2.5729915418947367,-2.2350889508421052
1.7176115102483968e+18,-8.02641398615,1.9970196762300005,-2.2767429885999997
1.7176115104483968e+18,-8.407940597499998,1.6013774184599998,-1.8363887101
1.7176115106483968e+18,-7.20126988235,1.5006144562209998,-1.7554744719749997
1.7176115108483968e+18,-8.35383560915,1.4385385437400002,-2.7662400740999997
1.7176115110483968e+18,-10.281751487,0.563585517886,-3.33992209615
1.7176115112483968e+18,-10.534650581100001,0.1131272506675,-2.9318407058
1.7176115114483968e+18,-11.0699075094,-0.003367996205599999,-2.4953334275000008
1.7176115116483968e+18,-9.9638800053,-0.08088430024250001,-2.4542064513500006
1.7176115118483968e+18,-9.80151264945,1.059826080205,-2.06845113365
1.7176115120483968e+18,-7.350996025100001,2.0707488555499998,-1.5265779648
1.7176115122483968e+18,-7.1769080429,2.5685461807000003,-1.4037059783499999
1.7176115124483968e+18,-8.99942060895,1.1098221130400003,-2.16012799065
1.7176115126483968e+18,-10.343984572900002,-0.0347726898175,-2.5811649398000003
1.7176115128483968e+18,-10.508634681599998,-0.517765800505,-2.5048311767499998
1.7176115130483968e+18,-10.78908398475,-0.6936874694800002,-2.29586572275
1.7176115132483968e+18,-10.38502922,-0.1358574829075,-2.2521191940499996
1.7176115134483968e+18,-9.536638458699999,0.67858387754175,-1.9834204560000004
1.7176115136483968e+18,-8.137894661050002,1.6279621353,-2.20162918855
1.7176115138483968e+18,-7.949802511,2.290591952736842,-1.9099099009473686
1.7176115140483968e+18,-7.9170963134,2.0623887406000003,-1.8124609678999999
1.7176115142483968e+18,-9.17035764295,1.06505021671,-2.6047259444999997
1.7176115144483968e+18,-9.630837570199999,0.3159704360995,-2.7211688003499996
1.7176115146483968e+18,-10.847282959000001,-0.27321185302325,-3.1413674925499997
1.7176115148483968e+18,-10.4513413241,-0.3117043075595,-2.9423114319
1.7176115150483968e+18,-10.1277517312,0.0420849838195,-2.95000543225
1.7176115152483968e+18,-9.408370193800002,0.9108408966300001,-2.4660842513
1.7176115154483968e+18,-7.9549675599,1.4333368607149999,-2.3459365997
1.7176115156483968e+18,-8.624629989550002,2.0977826384999996,-2.3850727157000007
1.7176115158483968e+18,-8.625528121950001,1.7491501235000004,-2.3473661269499995
1.7176115160483968e+18,-8.34629129805,2.01600020585,-2.1143980866999996
1.7176115162483968e+18,-9.085349418499998,0.8463624801249999,-2.4268658065500004
1.7176115164483968e+18,-9.8133754815,0.31975007629249996,-2.3863600387000004
1.7176115166483968e+18,-10.181504951,-0.3356245651215001,-2.36795581055
1.7176115168483968e+18,-10.997660247499999,-0.823377777135,-2.0296443328500002
1.7176115170483968e+18,-10.33269056075,-0.56042708588,-1.6755930864500002
1.7176115172483968e+18,-10.1290166027,0.07173083494055,-1.4383289795185
1.7176115174483968e+18,-8.754911567650002,0.9239835662150002,-1.5205679627
1.7176115176483968e+18,-8.820171516631579,1.3440235097894735,-1.861859821631579
1.7176115178483968e+18,-9.0117025681,1.9925814056499997,-2.1988599471500003
1.7176115180483968e+18,-9.55026013175,0.7648943939249999,-2.83283658605
1.7176115182483968e+18,-8.1840736312,2.106771446265,-3.3604743577500003
1.7176115184483968e+18,-8.73778717825,2.2314771193500005,-3.4076263047400004
1.7176115186483968e+18,-8.95230608365,0.8623043289150001,-4.20839360045
1.7176115188483968e+18,-7.492436896999999,2.75340426625,-3.95325666035
1.7176115190483968e+18,-7.3330633165000005,2.1467907257700003,-4.4062521513999995
1.7176115192483968e+18,-8.1156060106,1.75486823265,-4.2768013458
1.7176115194483968e+18,-9.82182540795,1.2153227233555,-2.9069624405
1.7176115196483968e+18,-9.6928087003,-0.5313949585035,-1.186604942395
1.7176115198483968e+18,-10.691105232199998,-2.584495513985,0.81810873416
1.7176115200483968e+18,-9.265035759,-2.9803173981,0.4070859603895001
1.7176115202483968e+18,-9.399942718550001,-2.90878115835,-0.5332136764500001
1.7176115204483968e+18,-9.57203984045,-2.64618972015,-0.4866679687515
1.7176115206483968e+18,-9.15634677885,-3.1021490478500002,-0.11280541992348496
1.7176115208483968e+18,-9.382953048649998,-2.7649003601500004,-0.1598151626495
1.7176115210483968e+18,-9.3859318544,-2.85405496215,-0.3226615219048
1.7176115212483968e+18,-9.151422020050003,-2.86363504025,-0.22645658111735006
1.7176115214483968e+18,-9.255458438052631,-2.322097489157894,-1.0706682706684212
1.7176115216483968e+18,-9.3195523911,-2.6847121124999997,-1.0007813643549999
1.7176115218483968e+18,-9.3759101944,-2.8854895934499996,-1.3390329666
1.7176115220483968e+18,-9.319380249049999,-2.46421314225,-1.80880856325
1.7176115222483968e+18,-9.2177191544,-2.6682014465499995,-1.6386873320500002
1.7176115224483968e+18,-9.141153373700002,-2.494742157,-1.9276464386499998
1.7176115226483968e+18,-9.181719016999999,-2.5138424377499997,-2.4985667038
1.7176115228483968e+18,-9.12238240815,-2.49784819795,-2.5556729507
1.7176115230483968e+18,-9.059984665,-2.42554106145,-2.3432646559999997
1.7176115232483968e+18,-9.1513995666,-2.6624683685,-1.8250198517
1.7176115234483968e+18,-9.17090400695,-2.5812697219000005,-1.9566411438000002
1.7176115236483968e+18,-9.143825317300001,-2.7564953383999997,-2.2585333558
1.7176115238483968e+18,-9.042770461900002,-2.7901079407,-2.11826005545
1.7176115240483968e+18,-9.100123695350002,-2.7115962065500003,-2.5255256424
1.7176115242483968e+18,-9.06344247445,-2.7392736511,-2.4940910110000005
1.7176115244483968e+18,-9.054872794949999,-2.67103056335,-2.3412139206999996
1.7176115246483968e+18,-9.0325991135,-2.6448574905499997,-2.5543856276999994
1.7176115248483968e+18,-9.0168069533,-2.6487568818500002,-2.62771064755
1.7176115250483968e+18,-8.96786622625,-2.5870252531499998,-2.6462645644499996
1.7176115252483968e+18,-9.01655524005263,-2.5913481058947365,-2.6354590084736844
1.7176115254483968e+18,-9.0251146775,-2.6596167984,-2.5963284072499997
1.7176115256483968e+18,-9.032314704849998,-2.67562600705,-2.5596846083499996
1.7176115258483968e+18,-9.0556362075,-2.71804779055,-2.5687407759999994
1.7176115260483968e+18,-9.020751251250001,-2.7159521483499995,-2.46641356665
1.7176115262483968e+18,-9.031678527849998,-2.74951235975,-2.4578214340000004
1.7176115264483968e+18,-9.02727767945,-2.76302925105,-2.4715179520499997
1.7176115266483968e+18,-9.041670249949998,-2.75350156405,-2.48972758485
1.7176115268483968e+18,-9.03548810575,-2.6961632996,-2.48279699705
1.7176115270483968e+18,-9.03193299865,-2.69478616335,-2.5114848404
1.7176115272483968e+18,-9.0287895355,-2.6474396208999997,-2.5358466796500005
1.7176115274483968e+18,-9.0335421523,-2.6825042038499998,-2.5166116789500004
1.7176115276483968e+18,-9.009083015399998,-2.60159745025,-2.5985587692
1.7176115278483968e+18,-9.0279887009,-2.63387033835,-2.5967550202000003
1.7176115280483968e+18,-9.034283111499999,-2.6218203964999995,-2.58870176705
1.7176115282483968e+18,-9.041939689649999,-2.6426795197499993,-2.55533615105
1.7176115284483968e+18,-9.0149208756,-2.6506579285500003,-2.4773558121
1.7176115286483968e+18,-9.107593162650002,-2.7729236756,-2.3487732010499998
1.7176115288483968e+18,-9.05373516085,-2.7255322265,-2.0819380875499998
1.7176115290483968e+18,-9.058885634526314,-2.8168817379999997,-2.333032644105263
1.7176115292483968e+18,-9.10770542905,-2.7677668990499997,-2.35391500865
1.7176115294483968e+18,-8.959783035300001,-2.6815012894499994,-2.23687339785
1.7176115296483968e+18,-9.0364985046,-2.8286078795500003,-2.8966414032
1.7176115298483968e+18,-8.940136390649998,-2.5606575851,-2.9079279326500003
1.7176115300483968e+18,-8.91938204955,-2.85716848755,-2.6331892547000004
1.7176115302483968e+18,-8.91174044025,-2.8182569047,-2.8652292252000002
1.7176115304483968e+18,-8.95706618505,-2.4282803649,-3.1911838989000003
1.7176115306483968e+18,-8.862432975699999,-2.7578949280000002,-2.7230997849
1.7176115308483968e+18,-8.9368282699,-2.7221866836500004,-3.05103783415
1.7176115310483968e+18,-8.94392351535,-2.6247617798,-2.7113117980999997
1.7176115312483968e+18,-8.94512102505,-2.7105633544,-2.77262429805
1.7176115314483968e+18,-8.88281309505,-2.6194553146,-2.76105335995
1.7176115316483968e+18,-8.908866416999999,-2.8672425383999998,-3.0875918198
1.7176115318483968e+18,-8.921612411449999,-2.6423277512000003,-3.09560765075
1.7176115320483968e+18,-8.8737718964,-2.8767028655500004,-2.6416167297000004
1.7176115322483968e+18,-8.9238801957,-2.6534496231999993,-3.2533271712499996
1.7176115324483968e+18,-8.943923515349999,-2.8549081879,-2.5613012466000002
1.7176115326483968e+18,-8.9881789857,-2.7035654068499997,-2.2851180725
1.7176115328483968e+18,-8.969017253631579,-2.688732436368421,-2.934757666315789
1.7176115330483968e+18,-8.910475570550002,-2.5723258208999997,-3.15205526725
1.7176115332483968e+18,-8.798905082650002,-2.5464446412,-3.03204982
1.7176115334483968e+18,-8.877701225300003,-2.5455016022000003,-3.1525941467500003
1.7176115336483968e+18,-8.9120622711,-2.6736576004999995,-3.0423858261000003
1.7176115338483968e+18,-8.8892197724,-2.7481052855499994,-2.9564420471500004
1.7176115340483968e+18,-8.8706284332,-2.7464811630000003,-3.0406120146999998
1.7176115342483968e+18,-8.86843549345,-2.7233392867500004,-3.1013556976500003
1.7176115344483968e+18,-8.864371444700001,-2.7516304551,-2.9893136902000004
1.7176115346483968e+18,-8.8640645828,-2.7326873474999998,-3.0194609986000005
1.7176115348483968e+18,-8.8726941376,-2.7462192077000003,-3.0112580566
1.7176115350483968e+18,-8.862612602350001,-2.7370732269,-3.0619052353000002
1.7176115352483968e+18,-8.9448890076,-2.73369026175,-3.04117334755
1.7176115354483968e+18,-8.84656597145,-2.9237874528,-2.7044336012
1.7176115356483968e+18,-9.155486068799998,-2.7219022751000006,-2.4984619216
1.7176115358483968e+18,-8.9731577224,-2.89495740505,-1.8584303741000003
1.7176115360483968e+18,-9.1148605499,-2.8856467667,-1.9955377577500002
1.7176115362483968e+18,-9.107585678149999,-2.8623552018,-1.9184705199
1.7176115364483968e+18,-9.11092373655,-2.8678188399,-1.9243832244499994
1.7176115366483968e+18,-9.081197132315788,-2.939736785894737,-1.9260841610526314
1.7176115368483968e+18,-9.0377858276,-2.8188107528,-2.0841759338
1.7176115370483968e+18,-8.99175654605,-2.8574304429,-2.6832751006499995
1.7176115372483968e+18,-9.064205886849999,-3.0408440323,-2.1623284149999997
1.7176115374483968e+18,-8.891839324900001,-2.8161388092,-2.29157714085
1.7176115376483968e+18,-8.89731793205,-2.8696974333,-3.2179257888500006
1.7176115378483968e+18,-8.825968803499999,-2.8094926299,-3.0132264632500005
1.7176115380483968e+18,-8.8694608612,-2.7877353744,-3.1492111817999997
1.7176115382483968e+18,-8.826702278099999,-2.68875370785,-3.03921990965
1.7176115384483968e+18,-8.887558227700001,-2.6964851302999993,-3.1943947220000006
1.7176115386483968e+18,-8.87142178345,-2.6418712006,-3.254075615
1.7176115388483968e+18,-8.868413040250001,-2.6940452042,-2.8490478746
1.7176115390483968e+18,-8.8428312379,-2.6333913344999997,-3.0920749969499997
1.7176115392483968e+18,-8.7799245529,-2.6769732056,-3.40071817015
1.7176115394483968e+18,-8.599781662,-2.63976807395,-3.3530123748499996
1.7176115396483968e+18,-8.8166057739,-2.5626559295,-3.5129023819500005
1.7176115398483968e+18,-8.80900907125,-2.75713899995,-3.1612686082000003
1.7176115400483968e+18,-8.869969802899998,-2.8037894896499997,-3.10478356935
1.7176115402483968e+18,-8.82272804255,-2.7764712981500006,-3.1063029097999997
1.7176115404483968e+18,-8.836274871894737,-2.766633597947368,-3.1370895466842104
1.7176115406483968e+18,-8.834433700500002,-2.80528637695,-3.0455292893
1.7176115408483968e+18,-8.8369260178,-2.7989620285,-3.0504765015000004
1.7176115410483968e+18,-8.831836601300001,-2.8266768951500003,-3.0241761932999998
1.7176115412483968e+18,-8.82446443185,-2.7881844407,-3.1334489593499995
1.7176115414483968e+18,-8.827173797599999,-2.7707756424,-3.1034962462999998
1.7176115416483968e+18,-8.8255421906,-2.8061545715499996,-3.0803019788500006
1.7176115418483968e+18,-8.822660682549998,-2.7814035415000005,-3.12076284025
1.7176115420483968e+18,-8.82152304835,-2.78022848515,-3.10564427945
1.7176115422483968e+18,-8.82107398225,-2.78221186065,-3.1230530776000003
1.7176115424483968e+18,-8.819764205950001,-2.7875332946500007,-3.1149249802
1.7176115426483968e+18,-8.82238375855,-2.7780430297,-3.1114372329
1.7176115428483968e+18,-8.8241575699,-2.77823014065,-3.1230231401
1.7176115430483968e+18,-8.825968803350001,-2.7815681992499997,-3.1130838089
1.7176115432483968e+18,-8.8266424026,-2.77506422425,-3.1247370758499997
1.7176115434483968e+18,-8.830234931949999,-2.7556495970999997,-3.1266530914000006
1.7176115436483968e+18,-8.8164785385,-2.7638001481,-3.1437550277999997
1.7176115438483968e+18,-8.81502655785,-2.7503431320500002,-3.16772767635
1.7176115440483968e+18,-8.7954996642,-2.7395730285999997,-3.1712453614499996
1.7176115442483968e+18,-8.811647138,-2.747111037368421,-3.1673896951052627
1.7176115444483968e+18,-8.8141059722,-2.7564878540000004,-3.1603854446999997
1.7176115446483968e+18,-8.814944229099998,-2.75179511255,-3.1533126525500004
1.7176115448483968e+18,-8.81477957155,-2.7588679046499998,-3.1605501022
1.7176115450483968e+18,-8.815108886600001,-2.7530749512,-3.1530581816999996
1.7176115452483968e+18,-8.82159789275,-2.7552753755,-3.16120124815
1.7176115454483968e+18,-8.82155298625,-2.7447672270999997,-3.1534249189499994
1.7176115456483968e+18,-8.819734268249999,-2.7469077759,-3.1560893784000004
1.7176115458483968e+18,-8.821538017200002,-2.7369385070499996,-3.15629145815
1.7176115460483968e+18,-8.8202506943,-2.7534641418000003,-3.15349227905
1.7176115462483968e+18,-8.8205425873,-2.7369759293,-3.1732886122500004
1.7176115464483968e+18,-8.820759636,-2.74565787505,-3.1714324722500002
1.7176115466483968e+18,-8.818027816850002,-2.7035803757,-3.13264064025
1.7176115468483968e+18,-8.847074913099998,-2.7791133040500005,-3.1486648178500003
1.7176115470483968e+18,-8.84469486235,-2.72762038425,-2.9573027573000004
1.7176115472483968e+18,-8.8606367111,-2.81308515935,-3.0308747635000004
1.7176115474483968e+18,-8.876032196099999,-2.66957858275,-2.98466585535
1.7176115476483968e+18,-8.868869590749998,-2.7620487900499997,-2.9856912232
1.7176115478483968e+18,-8.889114990249999,-2.72104156495,-2.9684545669999998
1.7176115480483968e+18,-8.878195592000003,-2.7067502313157896,-3.068130316473684
1.7176115482483968e+18,-8.848399658249999,-2.68536325845,-3.1111378556
1.7176115484483968e+18,-8.822181678799998,-2.6371410371,-3.27800335695
1.7176115486483968e+18,-8.80859742735,-2.6317597275500004,-3.2903900987
1.7176115488483968e+18,-8.81090263365,-2.63021793365,-3.25968145765
1.7176115490483968e+18,-8.8172718886,-2.6474096833000003,-3.2745156097499994
1.7176115492483968e+18,-8.82632805635,-2.65269369505,-3.1949635389499997
1.7176115494483968e+18,-8.841933105550002,-2.6486970062,-3.27424617
1.7176115496483968e+18,-9.0539297561,-2.8787386322,-2.8411293411000003
1.7176115498483968e+18,-8.9990613555,-2.6478437805999997,-1.9075806655999998
1.7176115500483968e+18,-9.18990699005,-2.9212577133499997,-1.4267505567499998
1.7176115502483968e+18,-9.142231132500001,-2.8352091523,-1.7430727615000001
1.7176115504483968e+18,-9.15316589365,-2.9368028869,-1.5578629075500001
1.7176115506483968e+18,-9.16467695615,-2.89943309785,-1.6766783294
1.7176115508483968e+18,-9.139746299650003,-2.9223579254499996,-1.54888158405
1.7176115510483968e+18,-9.1605530319,-2.9117150573,-1.7072971572499998
1.7176115512483968e+18,-9.19156853495,-2.92699827575,-1.69694618225
1.7176115514483968e+18,-9.083261260950001,-2.7977645186999998,-1.6319887617499997
1.7176115516483968e+18,-8.9520890352,-3.2015648116,-1.6421825638
1.7176115518483968e+18,-9.297245226421053,-2.644747587368421,-3.222963602263158
1.7176115520483968e+18,-9.989342056500002,-2.3347099456500002,-3.0646445389
1.7176115522483968e+18,-10.979690116399999,-1.6205525436950001,-3.1936088561499996
1.7176115524483968e+18,-8.835623725400001,1.2192146300914999,-2.1851035537400003
1.7176115526483968e+18,-8.7138594358,0.6698345718686001,-2.7152935180449997
1.7176115528483968e+18,-8.14664396705,-0.16893120575,-2.7756629791
1.7176115530483968e+18,-7.633847831600001,0.21445903014,-2.6417514497
1.7176115532483968e+18,-7.80724724575,0.021689895623500006,-2.9483813094499998
1.7176115534483968e+18,-9.42446173095,-1.309821212785,-4.14140041345
1.7176115536483968e+18,-10.33359617585,-1.74434511565,-4.3203233413
1.7176115538483968e+18,-10.630406455300001,-1.7726138305000003,-4.09852956395
1.7176115540483968e+18,-9.89663234685,-1.0749296722550001,-3.73027285765
1.7176115542483968e+18,-8.555563613899999,-0.28258236695190003,-3.3192949904499995
1.7176115544483968e+18,-7.257186103899999,0.465898658781,-3.6198175506000005
1.7176115546483968e+18,-7.701327506999999,0.7022796020449998,-3.82391063695
1.7176115548483968e+18,-7.560642562849999,0.40979532620134995,-3.1603480225000005
1.7176115550483968e+18,-8.9863078769,-0.7593409423935,-4.059685340750001
1.7176115552483968e+18,-9.83983296145,-1.9983069991,-4.34189348605
1.7176115554483968e+18,-10.236448196400001,-2.25363105005,-4.5886029509499995
1.7176115556483968e+18,-9.590130904052634,-2.010051655,-4.115809551000001
1.7176115558483968e+18,-9.265462371949999,-1.5769557036400002,-4.05431900015
1.7176115560483968e+18,-8.651776039049999,0.08329428864,-3.8360354232500002
1.7176115562483968e+18,-8.316615509,0.048162345910700004,-4.1036040115
1.7176115564483968e+18,-8.049698066849999,0.7106472015404999,-4.07440722655
1.7176115566483968e+18,-7.535128120450001,0.02275268558999998,-4.005153740049999
1.7176115568483968e+18,-7.6819727553,0.14581926727649996,-3.32469875335
1.7176115570483968e+18,-8.999443062149998,-0.60659857173,-4.441608627299999
1.7176115572483968e+18,-9.438577377049999,-1.354413482735,-4.6970075226
1.7176115574483968e+18,-10.150766372949999,-1.68057772065,-5.2480491258
1.7176115576483968e+18,-9.81434097315,-1.449585571305,-4.68017502595
1.7176115578483968e+18,-8.96365248855,-0.5512661361989499,-3.93814558415
1.7176115580483968e+18,-8.067271522450001,0.122789657588,-3.7950431671
1.7176115582483968e+18,-8.039953330950002,0.8919801178,-4.13907275395
1.7176115584483968e+18,-7.5707914581499995,0.87252806855,-3.9599926530000005
1.7176115586483968e+18,-7.4960593644,0.668592155425,-3.8747299575
1.7176115588483968e+18,-8.633499046399999,-0.6834412765585001,-4.459698509200001
1.7176115590483968e+18,-9.79275585945,-1.552324424725,-4.955377739000001
1.7176115592483968e+18,-9.464286415450001,-2.0760927429500002,-4.795495216349999
1.7176115594483968e+18,-9.607833564631576,-2.323901632263158,-4.496444332789474
1.7176115596483968e+18,-8.917705535849999,-1.91201145175,-3.8920339737500003
1.7176115598483968e+18,-8.947284026999998,-1.7775909805249999,-3.7987853852
1.7176115600483968e+18,-8.666797302100003,-0.48666796875500007,-3.852411369349999
1.7176115602483968e+18,-7.83711763005,-0.09357041931349999,-3.5527794569999998
1.7176115604483968e+18,-8.79014829215,0.09114546203800002,-4.8865134428
1.7176115606483968e+18,-8.290517280600001,-0.36896024316,-4.111500091499999
1.7176115608483968e+18,-7.6943520126,0.22115011598039996,-3.813686897200001
1.7176115610483968e+18,-8.150273918149999,-0.22637425231750002,-4.1280257263
1.7176115612483968e+18,-8.6347115249,-1.3356275482449997,-4.401701614449999
1.7176115614483968e+18,-9.00835702515,-1.7085470580500002,-4.6244234619
1.7176115616483968e+18,-9.224664710999999,-2.3784938965,-4.845588546750001
1.7176115618483968e+18,-9.710509392000002,-3.03750597375,-4.9222665939
1.7176115620483968e+18,-8.7175342941,-2.67885179905,-4.0063063430999994
1.7176115622483968e+18,-9.441578636100001,-1.371724983155,-3.4451757201
1.7176115624483968e+18,-8.948024986350001,-1.202277351365,-3.3361649093999994
1.7176115626483968e+18,-8.285263206550002,-0.464117362975,-3.2552357025
1.7176115628483968e+18,-8.4933080748,-0.199377891545,-3.1632444991499993
1.7176115630483968e+18,-8.6999234162,-0.33794474030059996,-3.60436219025
1.7176115632483968e+18,-9.016586753473685,-0.5900729370078948,-3.8774657158947368
1.7176115634483968e+18,-8.408352241500001,0.0821117477405,-3.4598003082000006
1.7176115636483968e+18,-8.64600553895,-0.0005763015835000051,-3.5489698791499995
1.7176115638483968e+18,-9.21694825735,0.9132957916834998,-3.2636556929999996
1.7176115640483968e+18,-9.229162857099999,1.343231735227,-2.609022010815
1.7176115642483968e+18,-9.9753910675,0.3141217803935,-1.5495776368
1.7176115644483968e+18,-9.814745132499997,-0.66165408321,-0.7886200561589999
1.7176115646483968e+18,-9.49950068685,-2.8478129425,0.03187621305400001
1.7176115648483968e+18,-9.118610252299998,-3.835017540050001,-1.271927513155
1.7176115650483968e+18,-9.01465143585,-4.0284602737499995,-2.6084082871499996
1.7176115652483968e+18,-8.8707107621,-3.8364021606,-2.2953268433500003
1.7176115654483968e+18,-8.570637268099999,-4.00834210965,-1.5622787246
1.7176115656483968e+18,-8.707579994249997,-3.9028639525999997,-1.5407310333499997
1.7176115658483968e+18,-8.772499992300002,-3.7989275894500003,-1.8653160552999999
1.7176115660483968e+18,-8.71793096915,-3.98504306035,-2.1385578461
1.7176115662483968e+18,-8.78447508995,-3.53017646015,-2.4161031876
1.7176115664483968e+18,-8.751723197950001,-3.621194686900001,-2.3751109314999996
1.7176115666483968e+18,-8.75048078165,-3.5589765700500005,-2.4628809127499998
1.7176115668483968e+18,-8.702198684649998,-3.4307906341999996,-2.6777964935500007
1.7176115670483968e+18,-8.50238236273684,-3.1109885607368426,-3.672037642578948
1.7176115672483968e+18,-8.36855001065,-2.8626171570000003,-4.300961105400001
1.7176115674483968e+18,-8.49455049135,-3.19674483485,-3.6707042313000002
1.7176115676483968e+18,-8.499931800799997,-3.1616877366,-3.3907114792
1.7176115678483968e+18,-8.4899026565,-3.20584590915,-3.7066669464
1.7176115680483968e+18,-8.504879013,-3.10096650705,-3.67460362235
1.7176115682483968e+18,-8.514062416049999,-3.0973739777500002,-3.6393294753999994
1.7176115684483968e+18,-8.51778966525,-3.0413005829000004,-3.70347109215
1.7176115686483968e+18,-8.5472484055,-3.0218485335499996,-3.616861198600001
1.7176115688483968e+18,-8.53589451605,-2.9844263533500004,-3.7104765243499997
1.7176115690483968e+18,-8.527407165500001,-2.9797934875,-3.705349685750001
1.7176115692483968e+18,-8.509100235,-2.9592412261499996,-3.7827686920000003
1.7176115694483968e+18,-8.5012715149,-2.9319978788500003,-3.8310133668000006
1.7176115696483968e+18,-8.5257905273,-2.9610225219,-3.7316275405999995
1.7176115698483968e+18,-8.5270104904,-2.9931906281,-3.6982993470000003
1.7176115700483968e+18,-8.48718580615,-3.0529763030499995,-3.74543632505
1.7176115702483968e+18,-8.44533284,-3.05496716295,-3.86113073725
1.7176115704483968e+18,-8.4267864075,-3.0821955414,-3.8503980561
1.7176115706483968e+18,-8.41211691285,-2.9648171311500002,-3.9992634887499996
1.7176115708483968e+18,-8.426734410421052,-2.8958464773157897,-4.003219998
1.7176115710483968e+18,-8.401541404800001,-2.83938546755,-4.1096738891
1.7176115712483968e+18,-8.397986297650002,-2.8066186066,-4.140300201450001
1.7176115714483968e+18,-8.383436554,-2.8105928421,-4.1558004684
1.7176115716483968e+18,-8.387380851650002,-2.8182419357999997,-4.169197608899999
1.7176115718483968e+18,-8.458243492100001,-2.7765311736999996,-4.0278315811
1.7176115720483968e+18,-8.4718127746,-2.8417131270499993,-3.946475761450001
1.7176115722483968e+18,-8.444644271899998,-2.8656558381500004,-3.9969358291
1.7176115724483968e+18,-8.4119372864,-2.9449085313000003,-4.016597442549999
1.7176115726483968e+18,-8.366416946349998,-2.9598324965500002,-4.024007034349999
1.7176115728483968e+18,-8.3870141143,-2.9302240676999993,-4.12845233925
1.7176115730483968e+18,-8.39293430325,-2.8768301009000004,-4.107159118649999
1.7176115732483968e+18,-8.409699439999999,-2.88086421195,-4.052298202449999
1.7176115734483968e+18,-8.4098042221,-2.8276872939,-4.09177860265
1.7176115736483968e+18,-8.42598557285,-2.7100169904999993,-4.171263313200001
1.7176115738483968e+18,-8.43251200095,-2.8993208312500003,-3.9481073684500005
1.7176115740483968e+18,-8.48455128475,-2.7437867661000004,-4.0564745178
1.7176115742483968e+18,-8.50788775645,-2.8925174789500003,-3.7544625548999995
1.7176115744483968e+18,-8.40613684845,-2.7583739319499996,-4.1297471465
1.7176115746483968e+18,-8.292235155578949,-2.5837612514210533,-4.533204731263157
1.7176115748483968e+18,-8.319856269899999,-2.5321718216,-4.493992195099999
1.7176115750483968e+18,-8.402244941800001,-2.6695112227999998,-4.19123178875
1.7176115752483968e+18,-8.4097368621,-2.7743457185000002,-4.088118713399999
1.7176115754483968e+18,-8.379559616149999,-2.7605294494000003,-4.2129890443
1.7176115756483968e+18,-8.3673075944,-2.7421776123,-4.245007461599999
1.7176115758483968e+18,-8.38936422725,-2.7280170592,-4.2056617812
1.7176115760483968e+18,-8.40618923955,-2.7742484208500002,-4.126356697100001
1.7176115762483968e+18,-8.397148040749999,-2.75095685585,-4.1715402373
1.7176115764483968e+18,-8.390157577450001,-2.7491381378500006,-4.2000933609
1.7176115766483968e+18,-8.4034798737,-2.7737319945999994,-4.145232444749999
1.7176115768483968e+18,-8.411226264899998,-2.8128381729,-4.10496617895
1.7176115770483968e+18,-8.40216261275,-2.821856918399999,-4.108685943699999
1.7176115772483968e+18,-8.400628303549999,-2.8002493516,-4.120556259100001
1.7176115774483968e+18,-8.389701027,-2.7856247635,-4.182707016
1.7176115776483968e+18,-8.39939337155,-2.7582841187,-4.1481289214
1.7176115778483968e+18,-8.406787994350001,-2.73609276585,-4.16837432095
1.7176115780483968e+18,-8.39986489105,-2.69592379765,-4.2045091780499995
1.7176115782483968e+18,-8.4039962998,-2.69227139285,-4.193798950250001
1.7176115784483968e+18,-8.418934840157894,-2.6652549424210523,-4.190772086473684
1.7176115786483968e+18,-8.42659929645,-2.6825565948,-4.123520095850001
1.7176115788483968e+18,-8.37367684935,-2.6884767836999997,-4.2962084885000005
1.7176115790483968e+18,-8.3777932892,-2.74293354035,-4.218849357800001
1.7176115792483968e+18,-8.375009079,-2.8243791733,-4.16895810715
1.7176115794483968e+18,-8.39071142575,-2.9632678528,-4.1162078017
1.7176115796483968e+18,-8.376214073249997,-2.9950542525499997,-4.09186841585
1.7176115798483968e+18,-8.28373638175,-3.0040879669,-4.0546782532500005
1.7176115800483968e+18,-8.324129882800001,-2.8824808502,-4.276337310750001
1.7176115802483968e+18,-8.387582931499999,-2.71515879825,-4.2117166902
1.7176115804483968e+18,-8.4341585769,-2.8016190032500004,-4.0711964034
1.7176115806483968e+18,-8.485120102,-2.75014853665,-3.95881011185
1.7176115808483968e+18,-8.465578239500001,-2.76157727055,-4.03141662595
1.7176115810483968e+18,-8.4630784378,-2.7906692734499994,-3.9255642470999996
1.7176115812483968e+18,-8.46131959545,-2.6931695251999996,-4.1433463669999995
1.7176115814483968e+18,-8.49112261955,-2.6558296736999996,-4.0271280441999995
1.7176115816483968e+18,-8.44015361025,-2.76346334825,-4.091673820550001
1.7176115818483968e+18,-8.434278328,-2.714380417,-4.12433589935
1.7176115820483968e+18,-8.475128379800001,-2.8944409789999996,-3.893358718900001
1.7176115822483968e+18,-8.466244354263159,-2.9347025177368415,-3.844904480105263
1.7176115824483968e+18,-8.44654531865,-2.6334811477000004,-4.1771311112
1.7176115826483968e+18,-8.4237701798,-2.58551339735,-4.2499322205
1.7176115828483968e+18,-8.679356185850002,-2.5836348038,-3.91765319825
1.7176115830483968e+18,-8.6411406555,-2.6095159835,-3.3606315306999996
1.7176115832483968e+18,-8.73228611755,-2.5917179946999997,-3.291842079
1.7176115834483968e+18,-8.70405482475,-2.6508225861,-3.7911362915
1.7176115836483968e+18,-8.60817919905,-2.6938131865999995,-3.6888689575499995
1.7176115838483968e+18,-8.537982673650001,-2.5714052353,-4.04473143765
1.7176115840483968e+18,-8.474731704750003,-2.6273364258000003,-4.08245299525
1.7176115842483968e+18,-8.526179718049999,-2.6339302139500003,-3.9471343918
1.7176115844483968e+18,-8.586264770500001,-2.6350379104500004,-3.8075945662499997
1.7176115846483968e+18,-8.519832916150001,-2.5917629013,-4.018109298700001
1.7176115848483968e+18,-8.4897978744,-2.5827366716,-4.1232731094
1.7176115850483968e+18,-8.468938751200001,-2.7377243728,-4.09032662205
1.7176115852483968e+18,-8.50494637305,-2.7372304000000005,-3.8352495575
1.7176115854483968e+18,-8.456260116500001,-2.7291322403500002,-4.010130889999999
1.7176115856483968e+18,-8.44085714725,-2.71259163665,-4.17773735045
1.7176115858483968e+18,-8.424749065210525,-2.615463746789474,-4.195388801894737
1.7176115860483968e+18,-8.37373672475,-2.5061634064,-4.3659110412
1.7176115862483968e+18,-8.329099548300002,-2.4086486893,-4.54938450615
1.7176115864483968e+18,-8.36356537625,-2.4233481215999997,-4.435576172
1.7176115866483968e+18,-8.390614128050002,-2.44105629735,-4.36570147705
1.7176115868483968e+18,-8.3779055556,-2.4481440582500005,-4.40247251135
1.7176115870483968e+18,-8.365039810149998,-2.45693078615,-4.42743310545
1.7176115872483968e+18,-8.36754709625,-2.49615671545,-4.37028195195
1.7176115874483968e+18,-8.37313048555,-2.4451877059499996,-4.411940322850001
1.7176115876483968e+18,-8.372367073,-2.45915366355,-4.3807901001000005
1.7176115878483968e+18,-8.34576738745,-2.3053035965,-4.476164268450001
1.7176115880483968e+18,-8.21931035625,-2.1864432677999996,-4.903488143950001
1.7176115882483968e+18,-8.30517929085,-2.1082533645499995,-4.66578993985
1.7176115884483968e+18,-8.279657363899998,-2.0680245208500003,-4.7583574448
1.7176115886483968e+18,-8.2420780105,-2.0014579468,-4.877382430950001
1.7176115888483968e+18,-8.2455582733,-2.0231553267499995,-4.83900224305
1.7176115890483968e+18,-8.26112590025,-2.0331545335,-4.8011010589500005
1.7176115892483968e+18,-8.25416537475,-2.01898649595,-4.83482592775
1.7176115894483968e+18,-8.26598329925,-2.0149074783499996,-4.8138620223999995
1.7176115896483968e+18,-8.270467264263159,-2.0282033819473684,-4.7985870763157905
1.7176115898483968e+18,-8.27899873355,-2.0500992966,-4.775676429750002
1.7176115900483968e+18,-8.2905547028,-2.08118964385,-4.7302608718500005
1.7176115902483968e+18,-8.29600337215,-2.11073819745,-4.72502925115
1.7176115904483968e+18,-8.2936457749,-2.1215382384000003,-4.721249610899999
1.7176115906483968e+18,-8.296624580350002,-2.15993339535,-4.68583325965
1.7176115908483968e+18,-8.30136222835,-2.1126093063499995,-4.705240402299999
1.7176115910483968e+18,-8.2932416152,-2.06467149365,-4.74058939365
1.7176115912483968e+18,-8.273991645850002,-2.0008142854,-4.80068193045
1.7176115914483968e+18,-8.273475219749999,-1.9978579329,-4.81415391545
1.7176115916483968e+18,-8.25815457925,-1.95779374705,-4.84348542035
1.7176115918483968e+18,-8.245161598250002,-1.9388431549,-4.87623731245
1.7176115920483968e+18,-8.238492965750002,-1.9420464935000001,-4.8948960114
1.7176115922483968e+18,-8.225357780649999,-1.93947184755,-4.9043713074
1.7176115924483968e+18,-8.225148216200003,-1.8480419768999998,-5.0848210601999995
1.7176115926483968e+18,-8.29434931185,-2.2280791854500004,-4.543763694799999
1.7176115928483968e+18,-8.3344209823,-2.0803064804500004,-4.65606017305
1.7176115930483968e+18,-8.3963397216,-2.2534813614,-4.44216247555
1.7176115932483968e+18,-8.38949894715,-2.2249207534499997,-4.4849584808000005
1.7176115934483968e+18,-8.399002605368421,-2.235025923842105,-4.454366045421052
1.7176115936483968e+18,-8.39188648235,-2.2534589081500003,-4.453441520700001
1.7176115938483968e+18,-8.3670007324,-2.1789513474,-4.575377952600001
1.7176115940483968e+18,-8.3528776017,-2.1706286545499998,-4.573581687900001
1.7176115942483968e+18,-8.349711685299999,-2.12217441555,-4.621294967750002
1.7176115944483968e+18,-8.34454742435,-2.13041477975,-4.629946975749999
1.7176115946483968e+18,-8.39074136355,-2.20475019835,-4.46069393925
1.7176115948483968e+18,-8.397492324850003,-2.1477337646000003,-4.5084072188999995
1.7176115950483968e+18,-8.320544838099998,-2.0812046127500006,-4.673618660000001
1.7176115952483968e+18,-8.24254952995,-1.9692898407000001,-4.939398468049999
1.7176115954483968e+18,-8.336134918199999,-2.0635937348499995,-4.62565090945
1.7176115956483968e+18,-8.3281415406,-2.0687280578999996,-4.6833110046
1.7176115958483968e+18,-8.323224266,-2.0884869690499994,-4.689440757750001
1.7176115960483968e+18,-8.349135383500002,-2.1522768173,-4.591072814999999
1.7176115962483968e+18,-8.380936752300002,-2.17926569365,-4.5587849579
1.7176115964483968e+18,-8.3656535339,-2.2945409774999996,-4.529154075700001
1.7176115966483968e+18,-8.537952736,-2.81486645515,-3.7890032272500007
1.7176115968483968e+18,-8.5360516892,-2.0502714386000003,-4.437851440299999
1.7176115970483968e+18,-9.663813995249999,-2.3516172867000003,-4.2064251937499995
1.7176115972483968e+18,-10.243797912578948,-1.0323243231947368,-4.286501962789474
1.7176115974483968e+18,-9.85330494635,-0.056926620514499995,-4.0300020676
1.7176115976483968e+18,-7.707509651700002,1.9491866456309996,-3.2210018920850003
1.7176115978483968e+18,-7.51919375625,-1.01117724606225,-2.9627888489
1.7176115980483968e+18,-8.565151175950001,0.14384337607500003,-3.8738018874999995
1.7176115982483968e+18,-7.148878829899999,-0.334434539757,-3.4649720535500004
1.7176115984483968e+18,-8.358026893449999,-0.71450168609,-4.44582984915
1.7176115986483968e+18,-8.9672674712,-1.2384271774799998,-4.8266903457499994
1.7176115988483968e+18,-10.00399658185,-1.62712387845,-4.8353947449
1.7176115990483968e+18,-10.381279518849999,-2.02686012265,-5.013307273800001
1.7176115992483968e+18,-9.5668905489,-1.3081746369249998,-4.0997944336
1.7176115994483968e+18,-7.975512336699998,-0.09488019561000002,-3.7573740004999996
1.7176115996483968e+18,-7.8557838134,0.14661261748754997,-3.8475090636500004
1.7176115998483968e+18,-7.693266769200001,-0.08953630822049999,-4.082827217149999
1.7176116000483968e+18,-7.83831513975,0.012933105460499996,-3.99847013855
1.7176116002483968e+18,-7.9977860183,-0.2679278411925,-4.299696235650001
1.7176116004483968e+18,-9.1503292923,-1.2111913146850002,-4.875406539999999
1.7176116006483968e+18,-9.032344642549997,-1.9250942460499996,-4.8924486007
1.7176116008483968e+18,-10.2982172473,-1.9370468902,-5.170884590199999
1.7176116010483968e+18,-9.492069035684212,-1.800306243894737,-4.685217566157895
1.7176116012483968e+18,-8.55561600495,-0.7350240097,-4.3634711152
1.7176116014483968e+18,-7.7810741728499995,-0.19841988370000002,-3.9597456665000004
1.7176116016483968e+18,-7.496628181599999,0.02793191522,-4.36838090515
1.7176116018483968e+18,-8.524907363900002,0.39464682769279,-4.615868751449999
1.7176116020483968e+18,-7.5401352082000015,0.3541186065435,-4.013678512700001
1.7176116022483968e+18,-8.1428942642,-0.49177983857355495,-4.3504332275
1.7176116024483968e+18,-9.1406818546,-1.7629514236949997,-4.817095298749999
1.7176116026483968e+18,-9.7982344664,-2.10216103375,-5.153707809400001
1.7176116028483968e+18,-9.616362671400001,-2.0340826033999995,-5.007469413600001
1.7176116030483968e+18,-9.087415122999998,-1.6612080001599996,-4.371718963600001
1.7176116032483968e+18,-8.159636947749998,-0.5643564148,-3.82405284105
1.7176116034483968e+18,-7.926189903300001,-0.21659957886325004,-3.8881570358
1.7176116036483968e+18,-8.34490667735,0.05694907378960001,-4.60538305665
1.7176116038483968e+18,-8.554029304499998,-0.4635111237154999,-4.746038063
1.7176116040483968e+18,-7.394338394100001,0.4512291641249999,-3.7550313720000004
1.7176116042483968e+18,-8.1331270752,-0.41994422149700006,-4.410720359800001
1.7176116044483968e+18,-8.905199043049999,-1.3950090638000001,-4.9931142654
1.7176116046483968e+18,-9.30376771545,-1.6844621429500002,-4.953970665000001
1.7176116048483968e+18,-9.689878741105264,-2.1967922732105265,-5.034228636052631
1.7176116050483968e+18,-9.3949056924,-2.00086667625,-4.78890142825
1.7176116052483968e+18,-8.85338429265,-1.3960943071,-4.363516021600001
1.7176116054483968e+18,-7.592024803150001,-0.5209167480550001,-3.810797905
1.7176116056483968e+18,-8.310620475850001,-0.09719288635764999,-3.951123596200001
1.7176116058483968e+18,-8.329563583399999,-0.3557427291754999,-4.87341567985
1.7176116060483968e+18,-8.4121767883,-0.526949203495,-4.87802609245
1.7176116062483968e+18,-8.498315162649998,-0.23496638489250002,-4.33931135565
1.7176116064483968e+18,-7.790025558399999,0.0031284942696500006,-3.988493385299999
1.7176116066483968e+18,-8.1891480789,-0.4953573989965,-4.65570092005
1.7176116068483968e+18,-8.66051037595,-1.067078498845,-5.362905281150001
1.7176116070483968e+18,-8.36389469145,-1.4044619064300001,-5.086160774150001
1.7176116072483968e+18,-8.752247108400002,-1.97570400241,-4.854390243599999
1.7176116074483968e+18,-9.619423806099999,-2.76415940085,-4.95435237125
1.7176116076483968e+18,-8.1339803011,-3.450646843,-3.7029172438550004
1.7176116078483968e+18,-9.59055633465,-2.4100183410500002,-4.183133628849999
1.7176116080483968e+18,-9.156017463499998,-1.245529907185,-3.88011126695
1.7176116082483968e+18,-8.2795076752,-1.03447629551,-3.87721479045
1.7176116084483968e+18,-7.887016365049999,-0.42418041229755,-3.9100864334499996
1.7176116086483968e+18,-8.063676235842106,-0.44910555388,-4.344069093263157
1.7176116088483968e+18,-8.50532059475,-0.53287687683,-4.37914352425
1.7176116090483968e+18,-8.398614990199999,-0.4701423339849999,-4.229903869699999
1.7176116092483968e+18,-8.55819065095,-0.6070251846475,-4.225705101000001
1.7176116094483968e+18,-9.04468647765,0.025177642814799985,-3.5218013762999996
1.7176116096483968e+18,-8.553580238,1.041975700375,-2.60078913126
1.7176116098483968e+18,-9.8177838143,-0.26620642093950003,-1.9340980225350002
1.7176116100483968e+18,-10.352292297249999,-0.9750947799649999,-1.3168041915315
1.7176116102483968e+18,-9.396297798,-3.2873364486499996,0.810519516035
1.7176116104483968e+18,-8.862739837499998,-4.7605952912,-1.3825699310799997
1.7176116106483968e+18,-8.42802133935,-4.710277427700001,-2.3543341369500004
1.7176116108483968e+18,-8.55230788435,-3.72640340425,-3.1220052565499996
1.7176116110483968e+18,-8.335581069949999,-3.8967042619000005,-3.4061967773
1.7176116112483968e+18,-8.511330596899999,-4.0200477677,-2.4682173156
1.7176116114483968e+18,-8.575539573550001,-3.9206544571500004,-2.5544529877000004
1.7176116116483968e+18,-8.527377227799999,-3.9309754945,-2.6856476668499996
1.7176116118483968e+18,-8.54736067205,-3.8193975221,-2.7840605163500003
1.7176116120483968e+18,-8.550107459949999,-3.89660696395,-2.7273584288
1.7176116122483968e+18,-8.639505109263157,-3.8616853734210523,-2.5048989307368417
1.7176116124483968e+18,-8.63670986945,-3.8183422165500005,-2.4418122254000005
1.7176116126483968e+18,-8.4935101547,-3.9382054595500002,-2.2137240372
1.7176116128483968e+18,-8.523170974749998,-4.17708620455,-2.6174195480499995
1.7176116130483968e+18,-8.45196405025,-3.7285364685999993,-3.1836246185499997
1.7176116132483968e+18,-8.407162216299998,-3.705821205200001,-3.28579465485
1.7176116134483968e+18,-8.297866996649999,-3.49345781715,-3.8775890121000005
1.7176116136483968e+18,-8.300037483150001,-3.53156856545,-3.7622538529
1.7176116138483968e+18,-8.3132250594,-3.5826648101500007,-3.6870801772500004
1.7176116140483968e+18,-8.3459170761,-3.5739379577999997,-3.5999912796500007
1.7176116142483968e+18,-8.3423844223,-3.49646656045,-3.6940107650500003
1.7176116144483968e+18,-8.306212143,-3.44917989355,-3.8468055267999994
1.7176116146483968e+18,-8.2976873703,-3.4535133820000006,-3.8300628432999995
1.7176116148483968e+18,-8.271042778,-3.511210899350001,-3.9331834030500006
1.7176116150483968e+18,-8.2115714493,-3.5551445389499996,-3.9475460356500003
1.7176116152483968e+18,-8.157556274500001,-3.5339710692499997,-3.89986269375
1.7176116154483968e+18,-8.218382286050002,-3.3940495376499995,-4.124567916849999
1.7176116156483968e+18,-8.1919322892,-3.2400048751999995,-4.26927200325
1.7176116158483968e+18,-8.20170696245,-3.2045810395000003,-4.24156462105
1.7176116160483968e+18,-8.196190145421053,-3.1895121123157892,-4.2864783277894745
1.7176116162483968e+18,-8.513014595100001,-3.4764980850000002,-4.057320259199999
1.7176116164483968e+18,-8.574125015349999,-4.27183916475,-2.2548959199
1.7176116166483968e+18,-8.6466791383,-4.127539237999999,-0.9989177398399999
1.7176116168483968e+18,-8.8745727306,-2.9703705827,-1.6291297073950002
1.7176116170483968e+18,-9.469271049449999,-4.34446813215,-1.6590075759449998
1.7176116172483968e+18,-8.538012611350002,-4.503527366599999,-0.72410421753
1.7176116174483968e+18,-8.427392646849999,-4.2061033629999995,0.8972641295780001
1.7176116176483968e+18,-9.391754745450001,-4.62981225575,2.0609741822
1.7176116178483968e+18,-7.72553217315,-2.3234608382700004,3.05885906995
1.7176116180483968e+18,-7.978408813350001,-2.61262202445,4.762047271800001
1.7176116182483968e+18,-7.589764503500001,-2.81851137545,4.82328492725
1.7176116184483968e+18,-7.7998451386,-3.0871128158999994,4.8108308259
1.7176116186483968e+18,-8.752516548250002,-2.708482681325,4.77245812225
1.7176116188483968e+18,-8.08994187935,2.0912113036099997,7.2558389054
1.7176116190483968e+18,-2.07984992988,2.2075942840024,6.352437538249999
1.7176116192483968e+18,-3.71948778519,2.6665623550449995,8.6511847686
1.7176116194483968e+18,-4.3998529585499995,7.662341079999999,9.077258743699998
1.7176116196483968e+18,0.420917198123,5.8955800782,7.8789406584
1.7176116198483968e+18,2.1882600161578942,6.479496869578947,6.486784346842105
1.7176116200483968e+18,2.0094213867999997,6.558319404599999,6.95786105355
1.7176116202483968e+18,1.5507601775500002,6.948550415,6.637646942150001
1.7176116204483968e+18,1.2902980613000001,7.149675922125001,6.261048831875
1.7176116206483968e+18,,,
