Timestamps,Gyro_X,Gyro_Y,Gyro_Z
1.7176115064471437e+18,-0.01768193541805,0.040627004400309995,-0.088828140491
1.7176115066471437e+18,0.02650565840243,-0.0246777601076,-0.227517718075
1.7176115068471437e+18,0.22837736755499996,0.22759174620850003,-0.873584647485
1.7176115070471437e+18,0.08528408389850002,0.270208652315,-1.4273990213999999
1.7176115072471437e+18,0.0860697470122,0.4992998376549999,-1.230738645785
1.7176115074471437e+18,0.080309435353,0.23836621877834996,-0.562824383385
1.7176115076471437e+18,0.147954843083,-0.022221436916546995,-0.22842452600500002
1.7176115078471437e+18,0.054714088284,-0.14859741367200002,-0.0693090951745
1.7176115080471437e+18,0.2194111593045,0.298865291884,-0.20029533589989995
1.7176115082471437e+18,-0.009183427884000001,0.71957693508,-0.31225206180500004
1.7176115084471437e+18,0.4564171932800001,0.002998750426500002,0.135557722977
1.7176115086471437e+18,0.611686043435,-0.023231493096999983,-0.5726324025545
1.7176115088471437e+18,0.29282834939185004,-0.41637751493539854,-1.1681986630249999
1.7176115090471437e+18,0.12200938677105,-0.0685656398272,-1.01265891198
1.7176115092471437e+18,-0.0692847799425,0.018855354920999996,-0.022011244296499997
1.7176115094471437e+18,-0.05900130986084999,0.17309378736745,-0.21835706625149998
1.7176115096471437e+18,0.14407987988694998,-0.19160885447825,-0.34625912234000006
1.7176115098471437e+18,0.010547040770000002,0.0755878647815,0.0256392300124
1.7176115100471437e+18,-0.1473013736036842,0.24466701322631584,0.16006792082263158
1.7176115102471437e+18,0.05339596226955,0.06696065832,0.013485962047
1.7176115104471437e+18,-0.08345589300294999,-0.14352239540630002,-0.16512972080350002
1.7176115106471437e+18,-0.052885580639294515,0.152438398982,0.02769309561649999
1.7176115108471437e+18,0.187379997223,0.217851934765,-0.370013844215
1.7176115110471437e+18,0.20100323370649997,-0.042334401404350006,-0.33991167172500003
1.7176115112471437e+18,0.11798486425899998,-0.25134163475475,-0.161267105212
1.7176115114471437e+18,-0.04275548124815,-0.03724144406260001,0.05215558393395
1.7176115116471437e+18,-0.052683008464799994,-0.11042838025349999,0.30425584801000005
1.7176115118471437e+18,-0.11658207113449996,-0.04750092429585001,0.47276643068
1.7176115120471437e+18,-0.09294516181075,0.232343299683,0.126039686891
1.7176115122471437e+18,0.1045586947361,-0.12208165100739996,-0.189390036096
1.7176115124471437e+18,0.21757861226999994,0.07366350892290001,-0.3901557058
1.7176115126471437e+18,0.1576718948795,-0.15282826721845,-0.33792858794
1.7176115128471437e+18,-0.0034280617483,0.017917641939239996,-0.210156566661
1.7176115130471437e+18,-0.15705599673350001,-0.008255414295000003,0.005747544428999999
1.7176115132471437e+18,-0.06257951143050001,-0.043935641634985,0.41751884296
1.7176115134471437e+18,-0.0429121866826,0.023931480572099997,0.4055790633000001
1.7176115136471437e+18,-0.1604142022265,0.1689663784615,0.26190366595649994
1.7176115138471437e+18,0.02706937079736842,0.06764061947857894,-0.05418464207942106
1.7176115140471437e+18,0.13629641197300005,-0.10132392216150002,-0.1462977609649
1.7176115142471437e+18,0.091790674656355,0.21996290841835,-0.26468356773
1.7176115144471437e+18,0.0893146710415,-0.11919248304400001,-0.368732677405
1.7176115146471437e+18,-0.026975444446900004,0.087738820491765,-0.122692923619
1.7176115148471437e+18,-0.058657753792,-0.004679087221115,0.08210416468500001
1.7176115150471437e+18,0.012808985985899999,-0.08883438746584998,0.25500377192499996
1.7176115152471437e+18,-0.1052664312015,0.045190338463399995,0.33288298622
1.7176115154471437e+18,-0.13201808552150002,0.06235506138699999,0.1574127358395
1.7176115156471437e+18,0.04576796926450001,-0.10135113233271001,0.023945148713449996
1.7176115158471437e+18,0.04642297374254999,-0.0018872077540000019,-0.003489498583900002
1.7176115160471437e+18,0.04736545765815,-0.1473868740695,-0.11832136858415002
1.7176115162471437e+18,0.100319128951,0.03339795396400001,-0.287872971585
1.7176115164471437e+18,0.11150640807499998,0.032158697305,-0.34110711813
1.7176115166471437e+18,0.122006156484,-0.18893669840955002,-0.22113216408300004
1.7176115168471437e+18,0.03367481036239999,-0.22369336634500003,-0.0305412188454
1.7176115170471437e+18,-0.0563534657024,0.03661892562680001,0.1557602162448
1.7176115172471437e+18,-0.090896266538185,-0.161801868211,0.351645264785
1.7176115174471437e+18,-0.14516746290245,0.241738706179,0.399656336
1.7176115176471437e+18,-0.1816559504489474,0.32758543620526315,0.09409740719913685
1.7176115178471437e+18,-0.08831105201625,0.0334188673715,-0.11397343986100002
1.7176115180471437e+18,-0.21509390473999995,0.5133693099000001,-0.13095967127455
1.7176115182471437e+18,-0.2311161309472501,0.050768323993,-0.011586988714500007
1.7176115184471437e+18,0.1787470947465,0.29591879299675,0.17881130948649998
1.7176115186471437e+18,-0.042224195039000004,0.22739338428000005,0.25052491351639994
1.7176115188471437e+18,0.0409612079145,0.620566766369,-0.1372971421135
1.7176115190471437e+18,0.22132311685849998,-0.09331309795300001,0.08578547994244999
1.7176115192471437e+18,0.2930770918705,-1.1219239309650002,-0.08073850310849998
1.7176115194471437e+18,0.1442990526505,-0.9696849793199999,-0.43763692602455995
1.7176115196471437e+18,0.1737553984877,-0.7931192867649999,-0.953429558865
1.7176115198471437e+18,0.3591229688325,-0.22572536094900003,-0.6479212626899999
1.7176115200471437e+18,-0.03188982675645,0.27867300211,-0.1345279490585
1.7176115202471437e+18,-0.0266613757101,0.19760729148899997,0.05813339482925001
1.7176115204471437e+18,0.17213898189150004,-0.055851831773945,-0.050527543065299996
1.7176115206471437e+18,0.08441266240649999,-0.04957267064631501,-0.013007238810249996
1.7176115208471437e+18,0.034989075746099996,0.03595666885351,0.018658400146549993
1.7176115210471437e+18,-0.06821933856964998,0.07602102914595,-0.0140966980721
1.7176115212471437e+18,-0.228032245114,0.15753783137055002,0.10881628760595
1.7176115214471437e+18,-0.1936699928278947,0.06673766346878947,0.021538263064368422
1.7176115216471437e+18,-0.101167941096,0.12513484451000004,-0.057220062799750004
1.7176115218471437e+18,-0.032229016021750004,0.12509287781,0.0202974818426
1.7176115220471437e+18,-0.0843160532445,0.08156813611389999,-0.00548860274665
1.7176115222471437e+18,-0.12108860760799997,0.048221714958949995,0.01558187596915
1.7176115224471437e+18,0.0109480376129,0.22599612400499997,0.017317803932035
1.7176115226471437e+18,0.051554954145,0.1434548446915,0.01667380984905
1.7176115228471437e+18,0.0705957960345,-0.05221388671699999,0.012381543888671501
1.7176115230471437e+18,-0.08015133852600001,-0.207299349095,-0.03615138802114999
1.7176115232471437e+18,-0.062276806314499986,-0.050908116009255,-0.062055161129
1.7176115234471437e+18,0.013585455063475,0.1031348674555,-0.025554887106449996
1.7176115236471437e+18,0.0591039201235,0.019590024020455003,-0.0382479282095
1.7176115238471437e+18,0.020031876128400003,0.07181782871740001,0.0071119989387300004
1.7176115240471437e+18,-0.07414101948799999,0.108785147915,0.012526488479249998
1.7176115242471437e+18,0.01606816898515,-0.052438314818,0.015759678255065
1.7176115244471437e+18,0.03145042325995,0.023321885709350003,0.014016960260760002
1.7176115246471437e+18,0.009580517664815002,0.0883685365315,0.029017543048
1.7176115248471437e+18,0.0434847597965,0.029290215112,0.0150773372495
1.7176115250471437e+18,0.01752773625745,0.0007360462768850001,0.0061807459864900004
1.7176115252471437e+18,-0.03545272536473684,-0.023918670162631578,-0.020272893843421055
1.7176115254471437e+18,-0.0347000565385,-0.027082212176499997,-0.022622099798
1.7176115256471437e+18,-0.0225480213518,-0.01531506879225,-0.021960807964
1.7176115258471437e+18,0.0030546547609000005,-0.01652496315344,-0.01316163702775
1.7176115260471437e+18,0.02859925199249999,-0.036990532336794994,-0.010958610102199999
1.7176115262471437e+18,-0.0038166693416500004,0.0067956200041400005,-0.006610737406184999
1.7176115264471437e+18,-0.01211835020315,0.00398000704017,0.00064272123558655
1.7176115266471437e+18,-0.015008781349854996,0.006267736154335001,0.00939892471618
1.7176115268471437e+18,0.003099844395425,0.00459398965525,0.015336272726099998
1.7176115270471437e+18,0.013612281996350001,0.020024417247999998,0.015552946599
1.7176115272471437e+18,0.017537795239499998,-0.00019296135892000023,0.00985349705375
1.7176115274471437e+18,0.014578832499350002,0.01787950536275,0.00900327340355
1.7176115276471437e+18,0.0013233216596649998,0.02735492450245,0.015277401153699998
1.7176115278471437e+18,-0.003896655700715,-0.01453426145105,-0.010225098315075
1.7176115280471437e+18,-0.020896731504100003,-0.0185810575497,-0.005292946877440001
1.7176115282471437e+18,-0.0333028581455,-0.016800057422949998,-0.009842923248323499
1.7176115284471437e+18,0.050480673043199996,-0.067146613821,-0.03499272200299999
1.7176115286471437e+18,0.0010308368717950004,-0.09260756205849999,-0.015197306569209998
1.7176115288471437e+18,0.008101077145035,-0.01825158907735,-0.012459013576349999
1.7176115290471437e+18,-0.044039140699473685,0.10285818341368422,0.002870020787126316
1.7176115292471437e+18,0.0157971866898,-0.028748738678575005,0.02210669540895
1.7176115294471437e+18,0.059671593840799994,0.14909331425800001,-0.012676610269085006
1.7176115296471437e+18,-0.006614200165200002,0.160474667091,0.035864273272750005
1.7176115298471437e+18,-0.019946695118949996,-0.06351936596999999,-0.021287185326399997
1.7176115300471437e+18,0.038977194856499996,-0.0666974630175,-0.02983421038445
1.7176115302471437e+18,-0.11107170721779999,0.25314479134949996,0.06293090889349999
1.7176115304471437e+18,0.024834968381844496,-0.1518330909107,-0.01666741645855
1.7176115306471437e+18,0.0047078401198499984,0.05743131245944999,-0.029091664990799997
1.7176115308471437e+18,0.00692268926625,-0.05240992769049999,0.02253934235765
1.7176115310471437e+18,0.0157690979305,-0.05893999992705001,0.0028401289779000005
1.7176115312471437e+18,0.004331362736395001,0.028648053435129994,-0.00973638015229
1.7176115314471437e+18,-0.044048051690150004,0.0482635840163,-0.0313386907797
1.7176115316471437e+18,-0.10585007314349999,0.0833221925288,-0.04503543111575
1.7176115318471437e+18,0.045303931997599994,-0.117092562277,0.012983749817829996
1.7176115320471437e+18,0.0067008923001,0.03363471071555,0.02228197613255
1.7176115322471437e+18,0.019851680704950005,-0.023141612288,-0.03704611533655
1.7176115324471437e+18,0.018268493658550006,-0.26051273570100003,0.005567348096850002
1.7176115326471437e+18,-0.08705071751000001,0.13565752189875,0.0356261340455
1.7176115328471437e+18,-0.01908570972760895,0.2041779089894737,0.03812653532157895
1.7176115330471437e+18,0.046429487458000004,0.03229253287149499,0.029126028950000004
1.7176115332471437e+18,0.01494457172359,-0.0003594881043100004,0.0027498401992849995
1.7176115334471437e+18,-0.048874815739,-0.0143664551726,-0.032753462111099994
1.7176115336471437e+18,-0.032367776218,-0.0371066762605,-0.049956660438000004
1.7176115338471437e+18,0.02127786136735,-0.028149110613750007,-0.02413308215328
1.7176115340471437e+18,-0.011139742027950001,0.05838460894299998,0.0035134285751749995
1.7176115342471437e+18,-0.0048521739536500005,-0.03004106855945,-0.009669629391106997
1.7176115344471437e+18,-0.0008719331349949996,-0.015029276896205002,-0.0017931379086915003
1.7176115346471437e+18,-0.004460014681700001,0.007104900514044998,-0.003929713496415
1.7176115348471437e+18,0.0009242620784849998,0.005405164556575,0.00545445867191
1.7176115350471437e+18,0.0042701202327400005,-0.0035901650325499994,9.396445823000002e-05
1.7176115352471437e+18,-0.01809536379315,-0.050128336996,-0.023488287022349997
1.7176115354471437e+18,0.096984838598,-0.16344136597,0.011415434022799998
1.7176115356471437e+18,0.185864539825,-0.218668709325,0.009673221806305001
1.7176115358471437e+18,0.09289684940645002,-0.032744083693149996,0.00792621582488
1.7176115360471437e+18,0.09699332509549999,-0.034053831061500006,0.0190094164277065
1.7176115362471437e+18,-0.0770283892275,0.0192607910604,-0.0198434728079
1.7176115364471437e+18,-0.021192819869875,-0.029738985939735008,0.002818214992500001
1.7176115366471437e+18,-0.03482398606368421,0.0806364685205263,-0.005144064842073685
1.7176115368471437e+18,-0.041152288347855004,0.128534425791,-0.00626670969627
1.7176115370471437e+18,-0.057882671058500014,0.030535940594399996,-0.045454121381500005
1.7176115372471437e+18,-0.019097112235859998,-0.12558494247569998,-0.0062865005921500005
1.7176115374471437e+18,-0.1393558830065,0.2953349646195,-0.0205165641847
1.7176115376471437e+18,-0.096802324995,0.14841777418944999,0.0197464878436
1.7176115378471437e+18,0.01155019463085,-0.0481835172905,-0.006381092639649999
1.7176115380471437e+18,-0.04478465882225001,0.04117278382135,0.037767905183
1.7176115382471437e+18,-0.04133263451900001,-0.015072521905149993,0.016045885928999998
1.7176115384471437e+18,0.05704865553902999,0.089087869603,0.0455258268865
1.7176115386471437e+18,0.17869533449500002,-0.09894205671988501,0.02539719589895
1.7176115388471437e+18,0.08534240686149999,0.0004074552045999977,0.016331542563599998
1.7176115390471437e+18,-0.01974593792225,0.16543008684,0.0122417989185
1.7176115392471437e+18,-0.02181640805245,0.071782203484,-0.007074040142695001
1.7176115394471437e+18,-0.00861189612195,-0.007456294383335,-0.000793318080853
1.7176115396471437e+18,-0.10198538582500001,-0.07019224855949999,-0.037323735637011
1.7176115398471437e+18,-0.0319518257855,-0.109092912825,-0.061578408071
1.7176115400471437e+18,-0.011168907815935,-0.0189593018492,-0.02143294393324
1.7176115402471437e+18,0.002753552317139,0.009688116714976502,0.00533706354375575
1.7176115404471437e+18,0.019161927991999998,-0.029682640893736845,-0.0060751808097894745
1.7176115406471437e+18,0.005366322235,-0.011588108242,-0.0076200461072100005
1.7176115408471437e+18,0.00012756008649500016,-0.009878426348000001,-0.005191764799984999
1.7176115410471437e+18,-0.0123024601486,0.025516511301519995,0.0005797453340850002
1.7176115412471437e+18,-0.011417647346321,0.014671893494010001,0.008986448095040001
1.7176115414471437e+18,0.0002904924564000001,-0.018537523149625,-0.007340109319699998
1.7176115416471437e+18,-0.0036455933703950006,0.007577391198768,0.0036702149023704993
1.7176115418471437e+18,-0.0032373394583250004,0.007312156602765002,-0.0016051344456630002
1.7176115420471437e+18,0.00149919012328,-0.0030661825501800003,0.00059939055947
1.7176115422471437e+18,-0.00202096288557,0.002008619392345,0.00155734424475
1.7176115424471437e+18,0.0016817410595759998,-0.004576160828049999,0.00014318932048499992
1.7176115426471437e+18,-0.001477718341605,0.003950748424205,-0.0026880426972349996
1.7176115428471437e+18,-0.005821791081800001,-0.003533104245485,-0.0004795586049846
1.7176115430471437e+18,-0.010721177491399999,-0.0020051436959949995,0.00010681838314549998
1.7176115432471437e+18,-0.0024394920324400005,0.0066737751537,0.0005267814298600001
1.7176115434471437e+18,0.012541227554450002,0.006342281465025,0.008326304799809999
1.7176115436471437e+18,0.0155509726135,0.017140093165999997,0.00880098973895
1.7176115438471437e+18,0.01274222112365,0.010729527881,0.00646904741875
1.7176115440471437e+18,0.007148543966000001,-0.0007220654288330003,0.0007850525027009999
1.7176115442471437e+18,-0.0019932754435,-0.006485038516242106,-0.0015419468248894736
1.7176115444471437e+18,-0.006823157588899999,-0.00398186612875,-0.0044095355495555
1.7176115446471437e+18,-0.0119853493295,-0.00249515490143,-0.004864580149300001
1.7176115448471437e+18,-0.016080270102214998,-0.00503602877722,-0.00721630079185
1.7176115450471437e+18,-0.007406017789800001,-0.007145325745480001,-0.0018938807564949998
1.7176115452471437e+18,-0.0119770180438,0.0021788808922700003,-0.00176862332735
1.7176115454471437e+18,-0.007047325559205,-0.008750831377110002,-0.00237116555798
1.7176115456471437e+18,-0.008456759119250002,0.0028873846425700005,0.000153630127915
1.7176115458471437e+18,-3.456091510499994e-05,-0.0035476886608850006,0.0013851485860250001
1.7176115460471437e+18,0.00450275142192,0.006156422279200001,0.0008181969227299999
1.7176115462471437e+18,0.011720525322400002,0.007429999368964999,0.00278589969671
1.7176115464471437e+18,0.0010473522003500001,-0.0016806975995349994,0.0089135825158
1.7176115466471437e+18,0.026044648653250003,0.007514830474750001,0.015120052348100002
1.7176115468471437e+18,0.10898184105800002,-0.05749203204675,-0.0020738399875000002
1.7176115470471437e+18,0.0077123970372,0.00337490095915,0.0178889811067
1.7176115472471437e+18,0.007696342864039999,-0.007286083837705,0.0012599515731999999
1.7176115474471437e+18,-0.01513539026465,-0.026938001066750004,0.005933356577250003
1.7176115476471437e+18,-0.06285444404849999,0.0009419708680099996,-0.01969700467355
1.7176115478471437e+18,-0.06121837794799999,0.0009154391137999998,-0.004836001969195
1.7176115480471437e+18,-0.020792566901842103,0.03182030067105263,-0.00043958111503684217
1.7176115482471437e+18,-0.0161043195046,0.045574356334999996,0.01505574326753
1.7176115484471437e+18,-0.02173615038537,0.0639281611073,0.010245128444030001
1.7176115486471437e+18,0.00981729303,-0.027752828272999998,-0.0052456291625
1.7176115488471437e+18,-0.0103616296547,0.016818457737999996,0.003337765359605
1.7176115490471437e+18,0.01084466061992,-0.036760098207905004,-0.011414696369549998
1.7176115492471437e+18,-0.0006030615067900002,0.019049706769204998,0.004844975191964999
1.7176115494471437e+18,0.06461995030215001,-0.04966058563165,-0.0007713527245800003
1.7176115496471437e+18,0.298835936195,-0.44697520061999996,-0.01635308680105
1.7176115498471437e+18,0.09087594074320002,-0.254274721445,0.022659129928049998
1.7176115500471437e+18,-0.006410638872150001,-0.0025167564861499985,0.013119902146905001
1.7176115502471437e+18,-0.021294905071165,-0.012379764951950001,-0.036203186819
1.7176115504471437e+18,-0.0051303113351,-0.017191046430499998,-0.018696925836450003
1.7176115506471437e+18,-0.0634780226511,-0.0024813235500500005,-0.00599470887703
1.7176115508471437e+18,-0.004199896159249999,-0.007771492441365,-0.0026232159987385
1.7176115510471437e+18,-0.021478073066500004,0.043053122816685,-0.00049538603935
1.7176115512471437e+18,0.06841181017067999,-0.01294043648542,0.00018168278035675034
1.7176115514471437e+18,0.04391948997995,0.07108712852429999,-0.0224919515776
1.7176115516471437e+18,-0.1026266707145,0.24534992983800002,0.100016066200535
1.7176115518471437e+18,0.022708232951578953,0.2104064708442105,0.02107021283705263
1.7176115520471437e+18,-0.766520042735,-0.16428114883649997,0.3980316333550001
1.7176115522471437e+18,-0.336388335375,-0.0735964053275,1.02475309968
1.7176115524471437e+18,-0.0762468589435,0.0751716860105,0.266677686939
1.7176115526471437e+18,0.0858450965995,0.14560398538350003,-0.345153618595
1.7176115528471437e+18,-0.11810675928885002,0.13057063482731499,-0.355798662487
1.7176115530471437e+18,-0.05159629422695999,0.0863684601625,0.014912935160000002
1.7176115532471437e+18,0.012393155256400005,0.189580656962,-0.21409413106250003
1.7176115534471437e+18,0.258128880714,0.18594399811149998,-0.18263852205150002
1.7176115536471437e+18,0.22604451849649995,-0.264013173054,-0.119961471386
1.7176115538471437e+18,-0.12461642586150001,-0.008453467675,0.18236129396
1.7176115540471437e+18,-0.19622671380999998,0.032373335403,0.24924248196399995
1.7176115542471437e+18,-0.10321686039355,0.0958269295365,0.24760462511699993
1.7176115544471437e+18,-0.2928432587459999,0.24891616889149998,-0.019014600457445
1.7176115546471437e+18,0.17915324456084997,-0.27901337776490504,0.0005582125865499995
1.7176115548471437e+18,0.07311080906269998,0.04831998086905,-0.2541164800228001
1.7176115550471437e+18,0.145398358445,0.28376660125,-0.18538189548599998
1.7176115552471437e+18,0.29528760836000006,-0.15615637675049998,-0.27774424329
1.7176115554471437e+18,0.06587925661585,-0.013761973052000002,-0.05596172164544999
1.7176115556471437e+18,-0.1449231051563158,0.033297043489868415,0.14934149589526316
1.7176115558471437e+18,-0.09379243853284999,-0.14561901076329997,0.31933529972999997
1.7176115560471437e+18,-0.3317705629365001,0.265908969752,0.37332954406
1.7176115562471437e+18,-0.023047934239999988,0.09380072681,0.0009681033955000002
1.7176115564471437e+18,0.03687676047574999,-0.014540676024099993,-0.10615874055665
1.7176115566471437e+18,0.0449451338624,-0.11911726638886,-0.09010970592300001
1.7176115568471437e+18,0.15519065261749995,-0.03378471080300001,-0.024800687650099996
1.7176115570471437e+18,0.059390083703500005,0.155731932115,-0.13019163961556499
1.7176115572471437e+18,0.0770198117975,0.016382450216200002,-0.20755622647500002
1.7176115574471437e+18,-0.008790535527,-0.0287494524395,-0.009461120331
1.7176115576471437e+18,0.0418360941458,-0.153872410026,0.20260512457999996
1.7176115578471437e+18,-0.125471706554,-0.042708286833499996,0.272474342595
1.7176115580471437e+18,-0.29902443811999996,0.22955216838999998,0.21373006599410002
1.7176115582471437e+18,-0.13107264750800002,0.0056105301718499985,-0.06540494562935001
1.7176115584471437e+18,-0.044889107739850005,0.06941951218249001,-0.026259469567250004
1.7176115586471437e+18,0.2199092965565,-0.036443382395335,-0.16365937943500003
1.7176115588471437e+18,0.319653958075,0.0433005668437,-0.25653335005499994
1.7176115590471437e+18,0.208710769183,0.0016362570240000067,-0.262070123105
1.7176115592471437e+18,0.15934010066324997,-0.15362627153145,-0.13988344678439998
1.7176115594471437e+18,0.0745623457596842,-0.1323791856922684,0.05211832252024736
1.7176115596471437e+18,0.0954719766979,-0.04977999347999999,0.007812619912799999
1.7176115598471437e+18,-0.0947424713126,-0.03128370843310001,0.27244765833500006
1.7176115600471437e+18,-0.346638231725,0.23406198807600007,0.33334459961000007
1.7176115602471437e+18,-0.05323910023230001,-0.019460257375499997,0.1355265207695
1.7176115604471437e+18,-0.09243074134349996,0.16557152644,-0.31174442731700003
1.7176115606471437e+18,-0.021481142950500003,-0.04831334296599997,0.09558117285350001
1.7176115608471437e+18,-0.090739312866,0.07080497937049998,0.03975351209004999
1.7176115610471437e+18,0.2450073748885,-0.095907624535,-0.09155547619155
1.7176115612471437e+18,0.259592635929,-0.0205799476246,-0.234744342786
1.7176115614471437e+18,0.0738223433929,0.1521369848435,-0.2572720304
1.7176115616471437e+18,0.1526452261915,-0.034945112889,-0.250452987095
1.7176115618471437e+18,-0.03742447769985001,-0.25298964455,-0.07739324351405
1.7176115620471437e+18,-0.07790717906295,-0.16839636844650002,0.3049524242005
1.7176115622471437e+18,0.11662464491104998,-0.2383761691289,0.337840613725
1.7176115624471437e+18,-0.0444554815377,-0.016636415289500002,0.18715629466599998
1.7176115626471437e+18,-0.259701554465,0.323005930335,0.11778041589950002
1.7176115628471437e+18,0.05061079228776001,-0.016374923099499998,-0.03464482405845
1.7176115630471437e+18,0.07141300989055,-0.04080409486425,0.06246076110285
1.7176115632471437e+18,-0.029777457275631577,-0.011171472070184211,0.025902423315157897
1.7176115634471437e+18,-0.1290047863455,0.06579143982649999,0.1148195257455
1.7176115636471437e+18,-0.07838030727100001,-0.19717525468,0.4992356598449999
1.7176115638471437e+18,0.08766954234499999,-0.46742265820499995,0.22119833827649998
1.7176115640471437e+18,0.1819626466425,-0.46256221086,-0.029841812323999996
1.7176115642471437e+18,0.14719008457699997,-0.4707628361949999,-0.614756970115
1.7176115644471437e+18,-0.002512357475,-0.12179140078284997,-0.9909586936299999
1.7176115646471437e+18,0.12886545136,0.11996122198815,-0.55644412636
1.7176115648471437e+18,0.16489288136,0.5589738845850001,-0.282408935575
1.7176115650471437e+18,0.0278338000649,0.37343283359275004,-0.0423470477574
1.7176115652471437e+18,0.09363752193949999,-0.25927551389,-0.025687545120200002
1.7176115654471437e+18,0.028020242193740004,-0.150123732441,-0.024775482471635003
1.7176115656471437e+18,-0.057803395111,0.0671228396717,0.05068586962349999
1.7176115658471437e+18,0.00342984590604625,0.15125224366999998,-0.026124777504900006
1.7176115660471437e+18,-0.10449674046099999,0.08071183394650001,0.0786350856352
1.7176115662471437e+18,-0.0748861838625,0.0746324491694,0.07511504993725
1.7176115664471437e+18,-0.03435542024065,0.01409993523325,0.00441628140395
1.7176115666471437e+18,-0.07939459886049999,0.0012539133456999987,0.00779617555695
1.7176115668471437e+18,-0.14404335841449997,0.348047782475,0.06863057180149999
1.7176115670471437e+18,-0.18054833852105265,0.43094167897368424,0.13155862414684208
1.7176115672471437e+18,-0.020252441428593997,-0.022988265554500002,-0.026362139721370005
1.7176115674471437e+18,0.1596573729,-0.2677797459165,-0.09678341144699999
1.7176115676471437e+18,-0.0164254966421,0.0607813276407,0.018752592592370002
1.7176115678471437e+18,-0.0732413999735,0.054769418201300005,0.012845422758449998
1.7176115680471437e+18,-0.01430020814281,-0.037485275044149995,0.020550114219699996
1.7176115682471437e+18,-0.019871555548699998,0.004606458254507,0.0005271517581400001
1.7176115684471437e+18,-0.022542608855299996,-0.0152371975815,0.0221394270192
1.7176115686471437e+18,0.0002399638295350004,0.000563228351750002,0.0017054373700500004
1.7176115688471437e+18,-0.019909353880745,0.025930824130299995,0.01261772013925
1.7176115690471437e+18,-0.001040068257065,0.005783122742499999,0.00191603605884
1.7176115692471437e+18,-0.01813132062095,0.043508477974999994,0.0055361585777950004
1.7176115694471437e+18,-0.0030394498605,-0.01189944407065,0.00810538396725
1.7176115696471437e+18,0.0247614934451,-0.04000898753145,-0.00470159887911
1.7176115698471437e+18,0.07018042188249998,0.02085271030065,-0.015960109991233498
1.7176115700471437e+18,0.03414531289635001,0.052416533325,-0.024150777794
1.7176115702471437e+18,-0.02995845279650001,0.027252071327850007,0.0049902213444815
1.7176115704471437e+18,-0.04667732101000001,0.043039896968150006,0.0091389598787
1.7176115706471437e+18,-0.037374540325,0.0152795099199,0.030008132102999997
1.7176115708471437e+18,-0.038979142218421046,0.022483205176736843,0.03133186060684211
1.7176115710471437e+18,-0.0135861706227,0.03878509048465,0.013783159665599998
1.7176115712471437e+18,-0.003951445897164,0.00980612118105,-0.001653000950955
1.7176115714471437e+18,-0.0080499346369,0.004393321438949999,0.002298509632285
1.7176115716471437e+18,-0.009645837626448,-0.034966488648600004,0.0016356206673500003
1.7176115718471437e+18,-0.013184462232194999,-0.088164227087,-0.009958901467775
1.7176115720471437e+18,0.030264382623,0.02447893039795,-0.010894439217849999
1.7176115722471437e+18,0.061184396595,0.028609032322999994,-0.0131106203195
1.7176115724471437e+18,0.04773841733,0.024495206710199998,-0.016749090374950003
1.7176115726471437e+18,-0.006325949682399999,0.022471151501399996,0.00494992013638
1.7176115728471437e+18,-0.058627760596,0.013549950882295,0.016051350816444997
1.7176115730471437e+18,-0.015378443558650002,-0.03213729173941501,-0.0008706812169414496
1.7176115732471437e+18,-0.002591151301785,-0.013513042899555,0.0045243005214
1.7176115734471437e+18,-0.049300324359500006,0.013720126274950001,0.0194708416006
1.7176115736471437e+18,-0.06617281655834999,-0.020497269823643,0.0053429000995000005
1.7176115738471437e+18,0.038830115692999996,-0.0360438885619,-0.036308210440799994
1.7176115740471437e+18,-0.005387571256054999,-0.10043776909165,-0.011041382734549998
1.7176115742471437e+18,-0.05068057363105001,0.05137233510000001,-0.0252913457348
1.7176115744471437e+18,-0.132254362475,0.18397051616500001,0.0567584943966
1.7176115746471437e+18,-0.03784107963415789,0.10742420524457896,0.05478846791526316
1.7176115748471437e+18,0.083437395464,-0.09625780135199999,-0.0010803256363149999
1.7176115750471437e+18,0.12753687687499998,-0.09435326214099998,-0.028904260602500002
1.7176115752471437e+18,0.04891575484460001,0.0315629343208,-0.010147482524459999
1.7176115754471437e+18,-0.016447092802150003,0.040197092388,0.0159101071241685
1.7176115756471437e+18,-0.0115655330245,0.0005430899496450005,0.0037825346871850005
1.7176115758471437e+18,-4.582866095499995e-05,-0.038131127598999996,-0.0038889309358185
1.7176115760471437e+18,0.013938482105640002,-0.01325146920868,-0.006822946643950001
1.7176115762471437e+18,-0.013413659320899999,0.0341526462695,0.0022755713579765
1.7176115764471437e+18,0.0068751319314,-0.01696053575645,0.001672133128305
1.7176115766471437e+18,0.032263626484999995,-0.02249136474045,-0.018193660537499996
1.7176115768471437e+18,0.010523461922844998,-0.00186592437675,-0.0010738207786250005
1.7176115770471437e+18,-0.0011309846070794995,-0.00370350247186,-0.00032280191618499994
1.7176115772471437e+18,-0.01857742739405,0.033313993619999996,0.0095000146014
1.7176115774471437e+18,-0.003134183003455,-0.0105466180013,-0.00212035133711
1.7176115776471437e+18,-0.0242497604805,-0.00421520766642,0.008443250257405
1.7176115778471437e+18,-0.02925021047765001,0.00615588317175,0.01087082924835
1.7176115780471437e+18,-0.010098702856149997,0.00447493278755,0.00489021995449
1.7176115782471437e+18,-0.004060921119125,0.0044438398267,0.0068845749018800004
1.7176115784471437e+18,0.01753845734843737,-0.048451412076000004,-0.001059939324894737
1.7176115786471437e+18,-0.018129337323350002,0.06049638127199999,0.00421329161037
1.7176115788471437e+18,0.026289382691955,0.0239913003987,-0.006431044748380001
1.7176115790471437e+18,0.069718611613,-0.02338665035761,-0.02521085431865
1.7176115792471437e+18,0.063973927498,-0.015609600482300002,-0.029820203642499998
1.7176115794471437e+18,0.059595905802499995,-0.0123876599309258,-0.02358305919935
1.7176115796471437e+18,0.04432692583708999,0.007056779170200001,-0.018483831593799998
1.7176115798471437e+18,-0.11720160576399999,0.06462261626105001,0.05987900453245001
1.7176115800471437e+18,-0.027205079559899998,-0.020400669961380003,-0.009866359807200001
1.7176115802471437e+18,-0.0488589512185,-0.05530703719900001,0.039662892508675
1.7176115804471437e+18,0.01120372121234,-0.0831258663905,-0.014004254551250001
1.7176115806471437e+18,-0.0041776543022500005,-0.002546029177750001,0.0044273397889849995
1.7176115808471437e+18,-0.01627128915715,0.00219436932872,0.0018251372268
1.7176115810471437e+18,-0.12449973644399999,0.021486611291499997,-0.05295796729575001
1.7176115812471437e+18,0.008011701446030002,-0.0646115658367,0.042763910290492
1.7176115814471437e+18,0.006473507103644001,0.053479806391700004,-0.016097470693280998
1.7176115816471437e+18,0.07652902234690001,0.0351712010455435,0.01240827997355
1.7176115818471437e+18,0.094977292791,-0.006475687433949999,-0.0102737286125
1.7176115820471437e+18,0.0095091386732,-0.14800005946065004,-0.0800840133759
1.7176115822471437e+18,-0.08934418813757895,0.0838181130953158,0.07329968306705263
1.7176115824471437e+18,-0.1441938094685,0.14055706928895,0.06637745215263499
1.7176115826471437e+18,-0.025252665649549998,-0.17459552437499998,-0.031158141990399995
1.7176115828471437e+18,-0.1008336071374,-0.25679560675999996,-0.0273178824401
1.7176115830471437e+18,-0.009616445002499998,-0.14513881989750002,-0.002981984895
1.7176115832471437e+18,0.01154345980585,0.10965218895890001,-0.038143065258299996
1.7176115834471437e+18,0.045496207525200005,0.124783641192,-0.0015490571965500006
1.7176115836471437e+18,0.0187988441433,0.06250548954469999,0.022355591116330002
1.7176115838471437e+18,-0.0130843479884,0.060638874869500016,0.0078844782445
1.7176115840471437e+18,0.018221256951550004,0.09488256750329999,0.03537568512765
1.7176115842471437e+18,0.06686134403800001,-0.140914173607,-0.0036603899852200006
1.7176115844471437e+18,-0.00218341101385,0.05911544221445,0.0018772131994749992
1.7176115846471437e+18,-0.035957926605999994,0.062494481541,0.0138268697774
1.7176115848471437e+18,0.04505611735079999,0.03479011969174999,-0.0059783006435
1.7176115850471437e+18,0.1134837533395,-0.078229457699,-0.044869460258999995
1.7176115852471437e+18,-0.030953162395594997,0.0260473620125,0.01430187048345
1.7176115854471437e+18,-0.021342775249185,0.07467293478649999,-0.014815004594965
1.7176115856471437e+18,0.0093209530458,0.01829892045815,0.0370960809256
1.7176115858471437e+18,-0.02973523167421052,0.07106743576421054,0.06516534599736841
1.7176115860471437e+18,-0.04018040075900001,0.106739690891,0.0416757196185
1.7176115862471437e+18,-0.014284756337649997,0.002304432842999999,0.017713038774600003
1.7176115864471437e+18,0.009994154471050001,-0.04909738563050001,-0.009849568712350001
1.7176115866471437e+18,0.010985411051549997,-0.007064608484755,-0.0024195651291000005
1.7176115868471437e+18,0.010654965042375,0.0251568777259,0.0030860299419500003
1.7176115870471437e+18,0.0270551656375,-0.0055494394916,-0.006095037193485001
1.7176115872471437e+18,0.01134471490495,-0.001991536468200001,-0.006404392240401999
1.7176115874471437e+18,-0.043339611310499994,-0.013738123076809999,0.00027697082729999985
1.7176115876471437e+18,-0.0686087688415,0.0012734566747900004,0.007607793296950001
1.7176115878471437e+18,-0.14326075763250004,0.150917557808,0.033524217828
1.7176115880471437e+18,-0.026838361822600004,-0.0025711460009999977,0.01927548471075
1.7176115882471437e+18,-0.008663866972,-0.03572133348775,0.015870627348
1.7176115884471437e+18,-0.043099138328000004,0.07114704512,0.02341500641755
1.7176115886471437e+18,-0.011227108923370002,0.016511516429753,0.00258633534514
1.7176115888471437e+18,0.0035682715831056506,-0.026738564250000003,-0.00970384837165
1.7176115890471437e+18,0.008529680024705,0.00128434383655,0.0061498783437435
1.7176115892471437e+18,-0.0050236261335350006,0.004924391937445,0.0040944174980700005
1.7176115894471437e+18,0.005640252982299999,-0.015479786182150004,-0.0029162641613795005
1.7176115896471437e+18,0.00941204855661579,-0.004128498521972106,-0.0034970709050578946
1.7176115898471437e+18,0.0267387930078,-0.017345620633799998,-0.002232522179625
1.7176115900471437e+18,0.025603107454999996,-0.007916654168944999,-0.007090986241049998
1.7176115902471437e+18,0.014091444272050002,-0.00291779408044,-0.00234883395037385
1.7176115904471437e+18,0.026373812439549997,-0.0072971478978,-0.006873009161693
1.7176115906471437e+18,-0.0004235987319005003,-0.0020389401701799994,0.0051884133311549995
1.7176115908471437e+18,-0.039549706783,0.00754515386664,0.007677139318549998
1.7176115910471437e+18,-0.0360219165675,0.020523222611264998,0.014504681247950003
1.7176115912471437e+18,-0.028561448213000003,0.019166523097249998,0.00654494180626
1.7176115914471437e+18,-0.0111604027456,0.0038572109396100007,0.008616408420359998
1.7176115916471437e+18,-0.012037179898050001,0.019057412074500003,0.004924589279100001
1.7176115918471437e+18,-0.0029028862481750004,0.012766069919449998,0.0027160407248080004
1.7176115920471437e+18,0.001170727959865,0.008316514692965,-0.00286804317123
1.7176115922471437e+18,-0.00108913589511,0.013541867165700003,0.00649399129305
1.7176115924471437e+18,-0.04593612418565,-0.17766270862384997,-0.12974173482005
1.7176115926471437e+18,-0.050015458303499995,0.10067110059265001,0.023704905236799998
1.7176115928471437e+18,0.104875084195,-0.14935623845100002,-0.03829953924280001
1.7176115930471437e+18,0.061434420012500005,-0.0429505497008,-0.011154401633465002
1.7176115932471437e+18,-0.0037623845969,0.025336916477349997,0.01009198568614
1.7176115934471437e+18,-0.005006342906347368,-0.0246389814608421,-0.02917830844005263
1.7176115936471437e+18,-0.01835679742585,0.0396467462673,0.02627964426085
1.7176115938471437e+18,-0.011261249472740003,0.019838039332549996,0.0138760414029
1.7176115940471437e+18,-0.006111460807827001,0.019600131810250002,0.010860434759524999
1.7176115942471437e+18,-0.014542483864079494,0.0029372472606649996,0.0003194662864000004
1.7176115944471437e+18,-0.0512289851915,-0.025449483504649994,-0.021242539171495
1.7176115946471437e+18,0.0329424324207,-0.056751318369499995,-0.017960730684325004
1.7176115948471437e+18,-0.015292292367149999,0.02037358279395,0.017089067329500003
1.7176115950471437e+18,-0.042011523735550005,0.189594637235,0.05879912432250002
1.7176115952471437e+18,0.016850122273400003,-0.04552456071345,-0.00424087492255
1.7176115954471437e+18,0.0471224739681,-0.0775912324794,-0.006944429711459999
1.7176115956471437e+18,-0.0015412489297414998,0.0498190888206,0.004229333740654
1.7176115958471437e+18,0.0410191777165,-0.0414805707055,-0.00896920054135
1.7176115960471437e+18,0.0344580009575,-0.017316278762955,-0.00639657880005
1.7176115962471437e+18,0.067819059549,0.008637439740015001,-0.006328170240315001
1.7176115964471437e+18,0.16844616140850002,-0.2013646197475,-0.09365602601
1.7176115966471437e+18,0.052796778621299986,-0.12754855461195,0.10164566180499998
1.7176115968471437e+18,0.010953223357100002,0.08157524848149998,0.05860741862104002
1.7176115970471437e+18,-0.57808945814295,-0.34883211424099997,0.19458592086999998
1.7176115972471437e+18,-0.536806940738421,0.07341519753578947,1.030756178636842
1.7176115974471437e+18,0.08095218302029998,-0.09681552228359999,0.16721940773685
1.7176115976471437e+18,0.06064056977899999,0.26878386586,-0.55921209302
1.7176115978471437e+18,0.07531973785300002,-0.34801509496150007,-0.20415981914550002
1.7176115980471437e+18,-0.18646224895199998,0.5161767188971499,0.013518259299000001
1.7176115982471437e+18,0.19171759400915003,-0.29751431419849994,-0.07074761204709999
1.7176115984471437e+18,-0.0350375016215,0.39566868990099996,-0.024526138316
1.7176115986471437e+18,0.19509085490800002,-0.08562018237765,-0.15557313454755
1.7176115988471437e+18,0.1550625400635,-0.14447430374849995,-0.07736057653055
1.7176115990471437e+18,-0.057469453900199995,-0.05488776993859999,0.14350626357400004
1.7176115992471437e+18,0.0062543833869,-0.0227869501353,0.172259306162
1.7176115994471437e+18,-0.2331316921955,0.1895164136335,0.2963029689985
1.7176115996471437e+18,-0.08925917134934999,0.0267761138725,-0.27083718460550005
1.7176115998471437e+18,-0.0661155888845,-0.0794634575015,0.065009622881
1.7176116000471437e+18,-0.11739246530619998,0.1227004160633,0.015179457324500007
1.7176116002471437e+18,0.242875372436,-0.009761192703500001,-0.19175262898499998
1.7176116004471437e+18,0.10240312945099998,0.11431547794099998,-0.1615948472115
1.7176116006471437e+18,0.17411696239549998,-0.05421037735309999,-0.14702007546200002
1.7176116008471437e+18,0.021673672321145997,-0.102635406421,0.11810604234104997
1.7176116010471437e+18,-0.06261469363810526,-0.04085135518247368,0.17655089694315793
1.7176116012471437e+18,-0.1333742932425,0.0493274054049,0.14879554975899997
1.7176116014471437e+18,-0.29975631907300004,0.17331238351399997,0.2315160915225
1.7176116016471437e+18,-0.03197303369594999,-0.040890953334,-0.144477395896
1.7176116018471437e+18,-0.09148067322259498,0.164855255001,0.038734868288374996
1.7176116020471437e+18,0.19852273371600002,-0.082973766613,-0.02545746916335
1.7176116022471437e+18,0.34662150367999994,-0.21471984071000003,-0.261896073085
1.7176116024471437e+18,0.22807924300600005,0.0559823531655,-0.1437589817142
1.7176116026471437e+18,0.004598194225749998,-0.0131526119085,-0.07700308986169999
1.7176116028471437e+18,-0.009166785609,-0.012344903619000001,0.11723360523715498
1.7176116030471437e+18,0.0275783111318,-0.15311011893535004,0.1231298288395
1.7176116032471437e+18,-0.19841558336749998,0.08663113200535,0.24255013317000002
1.7176116034471437e+18,-0.19139738077675,0.1775773275695,0.07104736482315001
1.7176116036471437e+18,-0.09911049956955001,0.09755331136630001,-0.013227428401849994
1.7176116038471437e+18,0.066042643670955,-0.070830514375,-0.0050455725640715
1.7176116040471437e+18,0.108080063697,-0.041082163576349987,-0.03174151973995
1.7176116042471437e+18,0.09182944175850001,0.013139837245800002,-0.128251934044
1.7176116044471437e+18,0.08322912883500001,-0.006317605689,-0.15486833676450001
1.7176116046471437e+18,0.1341899793645,-0.018986423721,-0.20829553417149999
1.7176116048471437e+18,0.07364518242094736,-0.03374992452384211,0.057079012165315794
1.7176116050471437e+18,0.0037796129424999972,-0.1322081297545,0.06561338964105001
1.7176116052471437e+18,-0.06003981737663498,-0.0438796639885,0.16754263974
1.7176116054471437e+18,-0.29834441579349996,0.31208892995450005,0.1901897465845
1.7176116056471437e+18,-0.03403456262000001,-0.03419449692,-0.04340526407925001
1.7176116058471437e+18,-0.089754605861,0.07723441575799998,0.028179360741000005
1.7176116060471437e+18,0.12604328943534998,-0.09916894113870002,0.0341432374717
1.7176116062471437e+18,0.05045835520080501,-0.001967484969500001,0.03529071607655
1.7176116064471437e+18,-0.01152713142751,0.02213813522865,-0.03059680759855
1.7176116066471437e+18,-0.021819042060899997,0.11409534534485,-0.043842421597600004
1.7176116068471437e+18,0.014566805960500001,0.06382325775719999,-0.1664229776655
1.7176116070471437e+18,0.207520812005,0.03763290604045001,-0.247260174155
1.7176116072471437e+18,0.29495154768500004,-0.17762462818505,-0.30619884058499997
1.7176116074471437e+18,0.242243918033,-0.32383097560499996,-0.14440947389099998
1.7176116076471437e+18,-0.17055494274,-0.082747603214,0.022226752711000008
1.7176116078471437e+18,-0.14291050662645,-0.011165041014999997,0.30829972978199993
1.7176116080471437e+18,-0.016077096200099998,-0.05134576460550002,0.2641544994
1.7176116082471437e+18,-0.237480555475,0.21889450718000006,0.19072151705300003
1.7176116084471437e+18,-0.10971897746700003,0.06943202026190001,0.00831870996725
1.7176116086471437e+18,0.024004444283255787,0.01946583057,-0.013401950648368422
1.7176116088471437e+18,-0.047969032730299996,0.0987110542205,-0.0029056444065000005
1.7176116090471437e+18,0.030645201516114003,-0.056697199807800004,0.1391822155585
1.7176116092471437e+18,0.1189014672508,-0.31979860961,0.30402331129000004
1.7176116094471437e+18,0.11913566014675,-0.45864094794499993,0.384463541205
1.7176116096471437e+18,0.11959366153425002,-0.4116816639925,0.19731470560945003
1.7176116098471437e+18,0.23108221421999997,-0.5992177914954999,-0.5772985011249999
1.7176116100471437e+18,-0.0336783995755,-0.3571164585561,-1.209286499105
1.7176116102471437e+18,0.292461885144,0.0758605713955,-0.6549501448949999
1.7176116104471437e+18,-0.14845841088,0.7049529492950002,-0.2991332158450001
1.7176116106471437e+18,-0.260009402775,0.314803393925,0.083277243474
1.7176116108471437e+18,-0.24026617109499995,0.33301297501,0.1432327652058
1.7176116110471437e+18,0.1463372198865,-0.22315721046460002,-0.04687121584995
1.7176116112471437e+18,0.12752851236135,-0.19281743596359996,0.013362541025800001
1.7176116114471437e+18,-0.031768246763399996,0.11181900017400001,0.00836868598715
1.7176116116471437e+18,-0.034216739795,0.00196156945315,0.026705660718000002
1.7176116118471437e+18,-0.0498336368235,0.05236682714880001,0.029781493638400002
1.7176116120471437e+18,0.0728227111483,-0.12488678563300004,0.002610815921550001
1.7176116122471437e+18,0.12365495609789474,-0.015162276532842108,0.0053422125065263155
1.7176116124471437e+18,0.11119832378050001,0.0019139830133499986,-0.028753095119999995
1.7176116126471437e+18,0.02066461299745,-0.025947167764950003,-0.062184913176500003
1.7176116128471437e+18,-0.196827390055,0.34432882889499994,0.05740394247703451
1.7176116130471437e+18,-0.1476130992175,0.021774334456,0.05953511798444999
1.7176116132471437e+18,-0.13881511949599998,0.217829708394,0.039803429822574996
1.7176116134471437e+18,-0.0008020011000999999,0.0900871966456,0.026687857706849998
1.7176116136471437e+18,0.0729147247965,-0.03840679368,0.00225974339953
1.7176116138471437e+18,0.039426739886000005,-0.00985420651835,-0.007126176636268998
1.7176116140471437e+18,0.004259273525150001,-0.0192086056568,0.026789310179200006
1.7176116142471437e+18,-0.0562308333815,0.0779091157,0.030564159435000005
1.7176116144471437e+18,-0.005554365681250001,0.023891272779499997,-0.0018549445925350003
1.7176116146471437e+18,-0.026429380058000003,0.00877389017158,-0.0247350735605
1.7176116148471437e+18,0.016409362176545005,0.048598104574900006,-0.025708921067000002
1.7176116150471437e+18,0.0529670961215,0.0003633171324050002,-0.02270142806295
1.7176116152471437e+18,-0.15301961718186002,0.021442616426550005,0.046733819065249996
1.7176116154471437e+18,-0.09496762902300002,0.06439288588994999,0.005354595539800001
1.7176116156471437e+18,-0.054284293949500004,-0.0012681377827999994,0.04632315086145
1.7176116158471437e+18,-0.008621040661535,0.0076756342546500005,-0.0037861895458000004
1.7176116160471437e+18,0.011764827797684212,0.018898685744842107,-0.007590204092305264
1.7176116162471437e+18,0.30539264771849994,-0.7228993001994999,-0.2998242314895
1.7176116164471437e+18,0.27781230420584996,-0.7338567093000001,-0.0383480630785
1.7176116166471437e+18,-0.40835913792499995,-0.11025909414584997,0.28087714538499997
1.7176116168471437e+18,-0.1607034852785,0.013723534572900004,-0.25010052490800005
1.7176116170471437e+18,-0.029512420203649997,-0.365017797805,-0.13792820257881
1.7176116172471437e+18,0.11997894848999997,-0.55019340068,0.0043836931672999995
1.7176116174471437e+18,0.22897498644999997,-0.64395499007,0.05642110494995001
1.7176116176471437e+18,0.43672770710000003,-0.51620495914,0.192284768815
1.7176116178471437e+18,0.6501224517849999,-0.8214010119600001,-0.0035601596844999943
1.7176116180471437e+18,0.294000972805,-0.1153690906224,-0.08052367577375
1.7176116182471437e+18,0.0067703538576,-0.0657626570665,0.00414584651575
1.7176116184471437e+18,-0.186670494821,0.06383559862395,0.006767458998349999
1.7176116186471437e+18,-0.032406706275500005,-0.25632468167475,0.30461754452149997
1.7176116188471437e+18,1.772766774855,-0.947696198475,1.5381482720200002
1.7176116190471437e+18,3.50299296385,-2.23126601576,0.09732182840349993
1.7176116192471437e+18,1.579565199465,-3.5939987062499994,-1.5757593776845
1.7176116194471437e+18,-0.521576747249,-1.5877073869999996,-1.474046612575
1.7176116196471437e+18,0.580982315532,-3.5990302500350007,-0.9072859766919998
1.7176116198471437e+18,0.14656009336010525,0.06572064641578945,0.02103393937
1.7176116200471437e+18,0.25644185692,0.29045837894000004,-0.005754636062919999
1.7176116202471437e+18,0.214687492692,0.2445168925495,0.023960644233385002
1.7176116204471437e+18,0.10042362287500001,0.13677090685749999,0.007242857886250002
1.7176116206471437e+18,,,
