Timestamps,Gyro_X,Gyro_Y,Gyro_Z
1.7177642593896768e+18,-0.016761755671190474,-0.017328438050161904,-0.03430945532733333
1.7177642595896768e+18,0.00646247617015,0.007189906760635,-0.023141082911524998
1.7177642597896768e+18,-0.12863996133404998,0.01146364071145,-0.007631896600145
1.7177642599896768e+18,-0.38560119345,0.06040189187695001,-0.03512551193174
1.7177642601896768e+18,-0.66938306689,0.0964538754925,0.013085631839734999
1.7177642603896768e+18,-0.58793304265,0.06219965252905,-0.040715841586100004
1.7177642605896768e+18,-0.19312448980475005,0.092845534716,0.079206363668
1.7177642607896768e+18,0.07710489291080952,-0.05220963778714286,-0.06731779250516857
1.7177642609896768e+18,0.52028849274,-0.010993638778350004,0.06475444685177
1.7177642611896768e+18,0.477004222585,-0.15160226625905,0.0048323975885
1.7177642613896768e+18,0.5182044610400001,-0.0664224222775,-0.008206252376999994
1.7177642615896768e+18,0.32797015662205,-0.10369762989720502,-0.030841664278649993
1.7177642617896768e+18,-0.366339579595,0.014231494418550001,-0.025299972051200003
1.7177642619896768e+18,-0.7102189272650001,0.115535710038675,-0.039550211606999994
1.7177642621896768e+18,-0.6215431576571429,0.11386382171666666,0.052202153329952386
1.7177642623896768e+18,-0.17274817809899998,0.13561649173649998,0.05464154019844999
1.7177642625896768e+18,0.23059486453549996,0.180185161531,0.04715263624565
1.7177642627896768e+18,0.381209791455,-0.111853788464,-0.030631373590900002
1.7177642629896768e+18,0.39839667155499997,0.0635537322049,-0.03328093615469999
1.7177642631896768e+18,0.55426563025,-0.30471458964825004,-0.0231932037759
1.7177642633896768e+18,0.49656252934499995,-0.12128937281985,-0.050637124874060004
1.7177642635896768e+18,-0.18152200721645,0.19297360181499998,0.04381947893846
1.7177642637896768e+18,-0.4760203240857143,-0.1713373597811429,-0.14942316777466666
1.7177642639896768e+18,-0.6056719645850001,-0.11304343407765001,-0.05445140237037001
1.7177642641896768e+18,-0.43926300107499994,-0.011089446966900002,-0.0462267988629
1.7177642643896768e+18,-0.18595976126499997,0.099486231051,0.06886542936375001
1.7177642645896768e+18,0.23612864762145,0.32381597905500004,0.241483431305
1.7177642647896768e+18,0.39186466663485003,0.04083100640699999,-0.0040066574684499996
1.7177642649896768e+18,0.36301742345,-0.1338255866495,0.049897294668895
1.7177642651896768e+18,0.492863355647619,-0.12666570626904286,0.05122225300128096
1.7177642653896768e+18,0.32390934899999996,-0.306869136914,-0.0885883641107
1.7177642655896768e+18,-0.175073041202,0.09138818639525001,-0.0104165455771
1.7177642657896768e+18,-0.40553933977500006,0.0630504756958,0.08258591951289998
1.7177642659896768e+18,-0.598633378745,-0.013247905949999991,-0.026166287617999995
1.7177642661896768e+18,-0.46111849249,0.0967302918038,0.1003398318715
1.7177642663896768e+18,-0.38397508114,0.175447768839555,-0.06017901264450002
1.7177642665896768e+18,0.1889942951495,0.061087469850000006,0.030795654359899994
1.7177642667896768e+18,0.6770364429142858,0.10630834394310479,0.035707167274761906
1.7177642669896768e+18,0.5283476814600001,-0.133614966281,0.04652255354014999
1.7177642671896768e+18,0.39879289344,-0.12315510041994501,0.013652143068499998
1.7177642673896768e+18,-0.069008200054,0.030662027005550003,0.060040190018149996
1.7177642675896768e+18,-0.49810561685999993,0.0164277078799,-0.04969485350182999
1.7177642677896768e+18,-0.59777717144,0.0814387998758,-0.026516642887499997
1.7177642679896768e+18,-0.388391829295,0.08411061251545,-0.057515079386215015
1.7177642681896768e+18,-0.04259813430038096,0.1903396358892857,-0.028921099486380955
1.7177642683896768e+18,0.2401121126545,-0.059918662320900005,0.12238401383584999
1.7177642685896768e+18,0.5290956526849999,0.002787900720999999,0.17260015942150003
1.7177642687896768e+18,0.5857802853,-0.19554761995589998,-0.07462748736300001
1.7177642689896768e+18,0.44858461619499995,0.038457900100999996,0.15362506053100003
1.7177642691896768e+18,-0.0713924687395,0.09317483391926999,0.083510798217
1.7177642693896768e+18,-0.46028295308,-0.0168235600742,-0.12162247109035
1.7177642695896768e+18,-0.8131131444619049,0.20603674246004763,-0.12091290542857143
1.7177642697896768e+18,-0.5202248811750001,-0.17288943103645,-0.2505570896
1.7177642699896768e+18,0.273804448659,-0.2064169671405,0.11334897856850001
1.7177642701896768e+18,0.26749697924,-0.26608123593,0.018575489602649996
1.7177642703896768e+18,0.02370408412785,0.2594525145315,0.11883979850050001
1.7177642705896768e+18,-0.06744957014775002,0.022833419066399997,0.08942891750750001
1.7177642707896768e+18,-0.051431663147000005,0.015523122203899998,0.019071589526900003
1.7177642709896768e+18,0.021137944841499997,-0.0029435811324200005,-0.0141643390166
1.7177642711896768e+18,0.032148528667619046,0.008157395936,-0.0021524023085714283
1.7177642713896768e+18,0.038451966085,0.0027723516343499998,-0.006165320123604999
1.7177642715896768e+18,0.00593840567707,0.008619767660050001,-0.0038863521883650007
1.7177642717896768e+18,-0.03974231546800001,0.010585926263450002,0.0024707339125549996
1.7177642719896768e+18,-0.05651221461649999,0.0012659960430300005,0.015100868548050001
1.7177642721896768e+18,-0.0265637261795,-0.01002313538935,-0.005866570898575001
1.7177642723896768e+18,-0.0207317779305,-0.012252117973300001,-0.0036649881513594997
1.7177642725896768e+18,-0.008406495649652379,-0.015906325114566664,-0.0050174655181809535
1.7177642727896768e+18,0.0005298973759279998,8.802840022499982e-05,0.005685662618505
1.7177642729896768e+18,0.01958017670602,0.0030718953930415002,0.00634273361679
1.7177642731896768e+18,0.033480776568,0.011363477842499999,0.006536379829049999
1.7177642733896768e+18,0.030979259544000003,0.007315547997251001,0.00664920450655
1.7177642735896768e+18,0.028848193586000003,0.003994399518755001,0.001512107573205
1.7177642737896768e+18,0.002896656768755,0.00321214748517,0.0018144770757000002
1.7177642739896768e+18,-0.0108233261161,-0.0020138949796050004,0.0037593519082250006
1.7177642741896768e+18,-0.020078538373809525,-0.0009741379569809518,-0.0007441546934523807
1.7177642743896768e+18,-0.014631812636050002,-0.00912377630605,-0.000544576521555
1.7177642745896768e+18,0.0018137677895099995,0.0005235515416200003,-0.0014841240363995
1.7177642747896768e+18,-0.02398201269,0.0012011961542499998,0.0015748759731405004
1.7177642749896768e+18,-0.0181931818385,-0.00129240495159,0.0032231533201
1.7177642751896768e+18,-0.009019387676050001,0.0007488049159585001,0.0009516171762354999
1.7177642753896768e+18,-0.010073016951567,0.0029530001340130002,0.00029225846527
1.7177642755896768e+18,0.020222050425619045,-0.004205405101985714,0.0007838499954
1.7177642757896768e+18,0.034824769943,-0.002953919424915,0.0032542186668519995
1.7177642759896768e+18,0.02947358004800001,0.0035247857914699997,0.0006318030761499999
1.7177642761896768e+18,0.022609603125699998,0.007679235376349999,-0.0008002462796999999
1.7177642763896768e+18,0.009255309760410002,0.00771567084585,0.0002441906253964999
1.7177642765896768e+18,-0.0134797262028,0.008531640120050001,0.00283069261357
1.7177642767896768e+18,-0.029027278628999998,0.004678671469869999,0.00393680362015
1.7177642769896768e+18,-0.020952551580952383,-0.012196713183076194,-0.0038058057515666668
1.7177642771896768e+18,-0.0159870785668,-0.00248863038145,-0.001324401079971
1.7177642773896768e+18,-0.009725149895400001,-0.003957946435765,0.002964913600555
1.7177642775896768e+18,-0.0007369933885000004,-0.006427628919439999,0.005182887881405
1.7177642777896768e+18,0.026572267781549995,-0.011075950041350001,0.000493191578025
1.7177642779896768e+18,-0.115953083727435,-0.026196372834249998,-0.008032870768199998
1.7177642781896768e+18,-0.038368888435800004,0.053501814650449994,-0.1267590774165
1.7177642783896768e+18,0.0381487132,0.03772506523125001,0.00976576231245
1.7177642785896768e+18,0.029231404253142856,-0.06760688356761903,-0.02565242913333333
1.7177642787896768e+18,0.038828966672999995,0.0023301910960999996,0.014149514969250002
1.7177642789896768e+18,-0.0561754669946,0.01226030649725,0.028010513376805
1.7177642791896768e+18,-0.020025146927935,0.00892011485945,-0.0022839594058499993
1.7177642793896768e+18,0.07391504813090001,0.005450583086399999,-0.06382802163825
1.7177642795896768e+18,-0.0092532991431,-0.048358539189399995,-0.08062639402329999
1.7177642797896768e+18,-0.006683292507579999,-0.0366733958766,0.013511912012049997
1.7177642799896768e+18,-0.01968649127857143,0.13600947139904762,0.10082974635761904
1.7177642801896768e+18,-0.19578961135200001,0.368556535235,-0.44320044108299994
1.7177642803896768e+18,0.3139618303665,0.18088951390650004,0.20419084811500002
1.7177642805896768e+18,0.378195575068,-0.23240774702249997,0.154879766197
1.7177642807896768e+18,0.9200828671650001,-0.1483986731535,0.196423475445
1.7177642809896768e+18,0.6228144073854999,-0.1497015636375,0.056649630660000005
1.7177642811896768e+18,-0.06598203835945,0.060606833706670006,0.0016013083102499992
1.7177642813896768e+18,-0.45063453762999994,0.11468379848799999,-0.058437322153900004
1.7177642815896768e+18,-0.727373702195238,-0.11268658175538095,-0.08667895551952383
1.7177642817896768e+18,-0.5112111344900001,-0.21268226130499998,0.05578851381975001
1.7177642819896768e+18,-0.28062067926,0.18905880125985003,0.07458644072
1.7177642821896768e+18,-0.03416630793900001,-0.06578852189699999,0.21871978043300003
1.7177642823896768e+18,0.8407624542649998,0.10577884642544999,0.30153996161999996
1.7177642825896768e+18,0.477642732312,-0.3994514726149999,0.048632248075
1.7177642827896768e+18,0.33161683231899997,-0.040954623979245,-0.11901928270019999
1.7177642829896768e+18,0.06073626840428571,0.0382080350934762,-0.12225460774714285
1.7177642831896768e+18,-0.42011325060499993,0.08850622083800001,-0.0775783230535
1.7177642833896768e+18,-0.875380408765,0.20710172615500003,-0.047054602979849994
1.7177642835896768e+18,-0.6474434137499999,0.15540065337499998,0.020808830307699998
1.7177642837896768e+18,-0.15690664584999997,-0.0366870962145,-0.06931882840435001
1.7177642839896768e+18,0.08937149736150003,-0.0592090457006,0.016323045487150002
1.7177642841896768e+18,0.43448325768650004,0.010844315541550006,0.203256596435
1.7177642843896768e+18,0.47547836743333327,-0.236178664582381,0.021479399112738096
1.7177642845896768e+18,0.3599552724634999,-0.20595600679250006,-0.16375724521130003
1.7177642847896768e+18,0.31592113636499997,-0.01799199571845,-0.1239100671001
1.7177642849896768e+18,0.0493060932479,0.05501751248433499,-0.005982009575000001
1.7177642851896768e+18,-0.105493159176,-0.011877505469650001,-0.0131299437721
1.7177642853896768e+18,-0.58796970397,0.0009456401225999995,-0.101986257358
1.7177642855896768e+18,-0.658429211385,0.05448309938370001,-0.11282303314700001
1.7177642857896768e+18,-0.42311887405799997,-0.0622719861455,-0.0515788550955
1.7177642859896768e+18,-0.05438836120833335,0.051086200533904766,-0.009599792064761902
1.7177642861896768e+18,0.400253300365,-0.061332497237,-0.023032937939999994
1.7177642863896768e+18,0.5685649156449999,0.29839474316250003,0.005050571257500007
1.7177642865896768e+18,0.4744458735,-0.024014952218,0.0349906545561
1.7177642867896768e+18,0.42580721975499997,-0.0926219431679,0.00534710483465
1.7177642869896768e+18,0.24665807923450003,-0.08725430179074999,0.06502504402955
1.7177642871896768e+18,-0.010931572174450002,0.085012968077,0.04511533854845
1.7177642873896768e+18,-0.28096548042095243,-0.06059430399596191,-0.07383902490033332
1.7177642875896768e+18,-0.5210106104600001,-0.37091085612499997,-0.30232950821500004
1.7177642877896768e+18,-0.64173487126,-0.132173782965,-0.0228843748692
1.7177642879896768e+18,-0.42915398701999996,0.09390587000789999,0.04258482825175
1.7177642881896768e+18,0.03394945995115001,0.1895943559121,0.27997650653500006
1.7177642883896768e+18,0.5029345288949999,-0.0267948835178,0.07290757256025
1.7177642885896768e+18,0.44552662894,-0.23418922331349998,-0.021467592192
1.7177642887896768e+18,0.54627375751,0.08066681800700001,-0.05273899175019999
1.7177642889896768e+18,0.5041163393428573,0.0822952165352381,-0.003177233574190477
1.7177642891896768e+18,-0.033117705031,0.159950092441,0.08809754117219999
1.7177642893896768e+18,-0.18289809748,0.13520292816850002,0.075224336538805
1.7177642895896768e+18,-0.44583038539500003,-0.05451407087900001,-0.010447900855369998
1.7177642897896768e+18,-0.6292217090850001,0.008611968252999997,-0.0269869349192
1.7177642899896768e+18,-0.638482567655,-0.055723047813500015,0.102352142243
1.7177642901896768e+18,-0.34762603882500004,0.1405779734225,0.09053289346255002
1.7177642903896768e+18,0.37655274924761906,0.03422611490761905,0.040731162876952366
1.7177642905896768e+18,0.1864638725769,-0.0942383638265,-0.028696180402230004
1.7177642907896768e+18,-0.029523395066150003,0.006517992773,-0.030210558312465004
1.7177642909896768e+18,-0.040734129574899997,-0.13687079959450002,-0.0173056822494
1.7177642911896768e+18,-0.08381908517,0.01163881397785,-0.008195136626850003
1.7177642913896768e+18,-0.0041614943292,0.08076958991550001,0.029048952459500003
1.7177642915896768e+18,0.03241071770885,0.042752343882000006,0.0199988752372
1.7177642917896768e+18,0.06658996623904762,0.030788237184761907,0.05107496066809524
1.7177642919896768e+18,0.0552093418315,-0.0035238721416056503,-0.00814038057587
1.7177642921896768e+18,0.038118717354,-0.016041459562550004,-0.0133117320949
1.7177642923896768e+18,0.0058551390951,-0.022367277322949998,-0.0019563762118539997
1.7177642925896768e+18,0.0060583455896535,0.026011746202955,0.01458108779045
1.7177642927896768e+18,-0.03345595827605,0.0304994430395,0.00332220615807
1.7177642929896768e+18,-0.029584733862499997,0.0124759137397,-0.00243084924295
1.7177642931896768e+18,-0.029189434487634995,-0.010133547848135001,-0.009635978820700001
1.7177642933896768e+18,-0.01796654250314286,-0.01418609851790476,-0.007739661172738096
1.7177642935896768e+18,0.0015815714316999997,0.0082029381994,-0.004393374070105
1.7177642937896768e+18,0.007838525989449998,-0.0004396301580290001,-0.0011522612069599998
1.7177642939896768e+18,0.0366730272765,0.005172137974315,0.00548036695671
1.7177642941896768e+18,0.030597176682,-0.007797674415270001,0.0020527584071269997
1.7177642943896768e+18,0.0396594194695,0.005235241923804999,0.00278683798404
1.7177642945896768e+18,0.015016531385799997,-0.0069555478054999995,0.009983480791100001
1.7177642947896768e+18,-0.007099997857185713,0.007590232018533333,0.006254492671242855
1.7177642949896768e+18,-0.012621730949449999,0.011238605784950001,-0.004285783099315
1.7177642951896768e+18,-0.01815300583855,-0.003580919979305,-0.013815694232699998
1.7177642953896768e+18,-0.01648147425175,-0.011100724805967502,-0.009065464674650001
1.7177642955896768e+18,-0.015594776439649998,-0.008475799800150001,-0.0071480098647
1.7177642957896768e+18,-0.014075318584099999,-0.004138372733720001,-0.005773105169355
1.7177642959896768e+18,-0.0184749752976,0.0046638637313375,1.4742719980000087e-05
1.7177642961896768e+18,0.000642340420935,0.0014994094614199998,-0.0028933272930140004
1.7177642963896768e+18,0.01867986013642857,-0.002311025324804762,0.005701769309428572
1.7177642965896768e+18,0.028807611949999996,-0.007910472469400001,0.000653708225615
1.7177642967896768e+18,0.029668074846250003,-0.0092178616556,0.009453595336350002
1.7177642969896768e+18,0.032641009800500005,-0.007640502298945001,0.0012028361961175
1.7177642971896768e+18,0.0014531930905650004,0.009872774174335,0.0009401065122750001
1.7177642973896768e+18,-0.0207279867261,-0.0025543778083549997,-0.0034388437634699995
1.7177642975896768e+18,-0.0233538376155,0.001604800741108,-0.0053986639483
1.7177642977896768e+18,-0.020586059561904763,-0.003127437838809524,-0.004619483287121429
1.7177642979896768e+18,-0.008067784644999998,0.00014387689253349988,-0.006683498992845001
1.7177642981896768e+18,-0.0035024579443,0.0143178927242,-0.00283595341604
1.7177642983896768e+18,-0.0075106601846600006,0.006142797192975001,0.0018940444801899999
1.7177642985896768e+18,0.0079296969452,-0.005897081165485,0.0038472013663249996
1.7177642987896768e+18,0.032651925367,-0.01100053302835,0.00015893806698550003
1.7177642989896768e+18,0.032149761356000006,0.00013345725565000016,0.0022850938490999997
1.7177642991896768e+18,0.008046493749047617,0.002445475697142857,-0.0018945715969780953
1.7177642993896768e+18,0.14008830970227498,-0.016657498525447997,-0.002943860325815
1.7177642995896768e+18,-0.11288868411850002,-0.023600389216150007,-0.0032380888124000006
1.7177642997896768e+18,-0.24396722279850006,0.10097106018155,-0.04588364614200001
1.7177642999896768e+18,0.07144349040899999,-0.08192502144275,-0.0596156016915
1.7177643001896768e+18,-0.35021067785445004,0.0988552862278,0.12217630674444499
1.7177643003896768e+18,-0.1817694790725,-0.5400731660095001,-0.179117113733
1.7177643005896768e+18,0.0921272143671,-0.20734251532800002,-0.15321770040305
1.7177643007896768e+18,0.40726799767142857,-0.16921409674166998,0.004800435298428554
1.7177643009896768e+18,0.6830118283650001,-0.0008142779277500011,-0.0570514039115
1.7177643011896768e+18,0.774710085985,-0.023122078924599998,0.193331296131
1.7177643013896768e+18,0.15326611458705003,0.13655588366399998,0.1135210871685
1.7177643015896768e+18,0.083398700470545,-0.054761566782000004,-0.06784938634655
1.7177643017896768e+18,-0.47855473422,-0.0031070358560999984,0.0336283059364
1.7177643019896768e+18,-0.7879501580800001,0.08547030636,-0.012164919869850004
1.7177643021896768e+18,-0.42892893634952384,-0.09620788116476188,0.027989126800571435
1.7177643023896768e+18,-0.0171309130225,0.157392273836,-0.0299083489975
1.7177643025896768e+18,0.530683577065,0.05009283711974999,-0.057162398099
1.7177643027896768e+18,0.64587155134,0.1127536505557,0.010361816240719999
1.7177643029896768e+18,0.5878273233800001,-0.0077934831865,-0.03127281246689999
1.7177643031896768e+18,0.22008944564650004,-0.032687760799100005,-0.001222700396599999
1.7177643033896768e+18,-0.06328438945170001,-0.034706898735660005,-0.055043874913500004
1.7177643035896768e+18,-0.477020741995,0.014410498074434997,0.014595835004500003
1.7177643037896768e+18,-0.6494967596857142,0.08897635267832381,0.018922188951714287
1.7177643039896768e+18,-0.3957970403195,0.21869466108649993,0.07475394534682499
1.7177643041896768e+18,-0.0183676453988,0.24879324622799998,0.26119616849274996
1.7177643043896768e+18,0.25461615384914993,0.006558049009749998,-0.044628505059505
1.7177643045896768e+18,0.6283942520600001,-0.01612000043795,0.18846190366700002
1.7177643047896768e+18,0.3897817778435,-0.20752573395199997,0.0772878775146
1.7177643049896768e+18,0.58037485927,-0.11291499105724997,-0.028924432391649997
1.7177643051896768e+18,0.01466264220190476,-0.012220485532142854,-0.08997668165623811
1.7177643053896768e+18,-0.19140268692067003,-0.09881786550085,-0.08390131652770001
1.7177643055896768e+18,-0.6700843840849999,0.038436360882450005,-0.17813095748
1.7177643057896768e+18,-0.6714622840300001,0.097075346668,-0.026464577946750008
1.7177643059896768e+18,-0.3582322921655,0.203939305925145,-0.06407606205649999
1.7177643061896768e+18,-0.08829359654350002,-0.065770427508,0.010100676270299994
1.7177643063896768e+18,0.377650608875,-0.23610545881550005,-0.14637224718795
1.7177643065896768e+18,0.6118257471428571,-0.11835393710690477,-0.06148914647619048
1.7177643067896768e+18,0.713077625635,0.179520800805,0.027118243889499995
1.7177643069896768e+18,0.36876244098,-0.19787509492799998,-0.002668082618000003
1.7177643071896768e+18,0.1010620409633,0.059972501034149986,0.0151042783176
1.7177643073896768e+18,-0.1001105218215,-0.07247163522899999,-0.0023651080203
1.7177643075896768e+18,-0.381307937215,0.032961394698700006,0.041008733863450005
1.7177643077896768e+18,-0.646582072975,-0.025838027731344998,-0.006000933469450001
1.7177643079896768e+18,-0.66652268767,-0.14898438485694998,-0.05101878829205
1.7177643081896768e+18,-0.3325614099047619,0.14796263015619046,0.08078879606095238
1.7177643083896768e+18,0.007600476214000002,0.17513276089865,0.04130703582999999
1.7177643085896768e+18,0.5124686598799999,-0.033420112075899996,-0.07717018089795
1.7177643087896768e+18,0.45917911976000003,0.036919161398099996,-0.03540000904955
1.7177643089896768e+18,0.40230644344,-0.0013924000760000006,0.0817745364233
1.7177643091896768e+18,0.49112217873499997,-0.039123571104,0.06455480167559999
1.7177643093896768e+18,0.05342560496770001,0.08046974139395,0.0508987749832
1.7177643095896768e+18,-0.09478408417333332,-0.04354729091000001,0.01101162315733333
1.7177643097896768e+18,-0.3415126979355,-0.017447349894549994,0.0101232226478
1.7177643099896768e+18,-0.59917795062,-0.028061319724850004,0.009123767249049999
1.7177643101896768e+18,-0.559606863565,0.045561120472949995,-0.03586942770061
1.7177643103896768e+18,-0.33613770157000006,0.03578436094255,-0.0206146836871
1.7177643105896768e+18,-0.2418571155645,0.1377083478175,0.14553296364750004
1.7177643107896768e+18,0.10306167644899503,0.3319557863725,0.0460810263213
1.7177643109896768e+18,-0.015597071855900002,0.137512214201,0.20035835076649997
1.7177643111896768e+18,-0.05665162130380953,-0.04726627245657143,-0.0874948584284762
1.7177643113896768e+18,-0.026961979223250006,-0.080793154609,-0.04844856718584999
1.7177643115896768e+18,-0.015863831783649997,-0.0851116208345,-0.035736413301000004
1.7177643117896768e+18,-0.0016642176201300007,-0.005887898732926501,-0.005072093312300001
1.7177643119896768e+18,0.034223034884,-0.033720133849399994,0.025993528147900003
1.7177643121896768e+18,0.016978410241129997,-0.0490551103835,0.040878608401750005
1.7177643123896768e+18,0.04298659032244999,-0.037665996374000005,-0.008661713270515
1.7177643125896768e+18,0.031490966767633334,-0.035619108718277774,-0.01610248497118889
1.7177643127896768e+18,,,
