Timestamps,Gyro_X,Gyro_Y,Gyro_Z,Label,Delta Time
1.7176849390025743e+18,-0.8831333244716115,-2.595839421001176,0.5647318802843647,1,16400000000
1.7176849392025743e+18,-1.3852861425213927,-3.358664569369048,2.3536799422511905,1,16400000000
1.7176849394025743e+18,1.9899993359935064,-4.95022625362353,4.3603409346352935,1,16400000000
1.7176849396025743e+18,5.1617711491369045,-1.1220809662347382,-0.3199767143129761,1,16400000000
1.7176849398025743e+18,-1.7254171392069408,-1.5714476821785883,-2.061441520686941,1,16400000000
1.7176849400025743e+18,-0.0555489270935833,-1.3069349838811906,2.4137402205238097,1,16400000000
1.7176849402025743e+18,-0.5031336167657143,0.872238984375345,-0.3339725567940476,1,16400000000
1.7176849404025743e+18,0.8537380995142353,-0.4657018654403175,0.2411732784665883,1,16400000000
1.7176849406025743e+18,-0.2360479251403809,0.8547053028790954,0.5977594938836905,1,16400000000
1.7176849408025743e+18,0.0042166423641647,-1.3229496320723528,0.2074913412191882,1,16400000000
1.7176849410025743e+18,0.3641704100885833,-0.1098134291906785,-0.1495912206745238,1,16400000000
1.7176849412025743e+18,0.1314022288665882,0.0821490752388706,-0.0070660655315482,1,16400000000
1.7176849414025743e+18,0.310746727515119,0.2158363351559524,0.0241139225631309,1,16400000000
1.7176849416025743e+18,0.5994675035261905,0.6198436217059524,0.0286443732422142,1,16400000000
1.7176849418025743e+18,1.0700202514035295,1.252910610502353,0.2247046558262353,1,16400000000
1.7176849420025743e+18,0.5700450254832501,0.5943916534415477,0.1109524056109952,1,16400000000
1.7176849422025743e+18,0.3337723323552941,-0.2897778535615764,-0.0403410708579176,1,16400000000
1.7176849424025743e+18,0.7552426418216547,0.0383361187641666,0.203494856282619,1,16400000000
1.7176849426025743e+18,-0.50770133687425,1.1534459722083334,-0.4914629792654762,1,16400000000
1.7176849428025743e+18,0.2330759581675176,0.1078127457144705,-0.2391143626949411,1,16400000000
1.7176849430025743e+18,0.3363350451095357,-0.0972301588780714,0.353968715027381,1,16400000000
1.7176849432025743e+18,0.5228403395578824,-0.3183511324319882,0.4081753245130586,1,16400000000
1.7176849434025743e+18,0.2244709144316667,-0.0933905468408012,0.1761112645878368,1,16400000000
1.7176849436025743e+18,-0.1726990961652588,-0.1761746369613647,-0.0953873926221376,1,16400000000
1.7176849438025743e+18,-0.3260469958214286,-0.0773703501466428,-0.1015533568329762,1,16400000000
1.7176849440025743e+18,-0.2117240236381428,-0.0933687311310726,-0.0336838631496119,1,16400000000
1.7176849442025743e+18,0.0475221200953682,0.0477404085686941,0.0119205044936976,1,16400000000
1.7176849444025743e+18,0.3661447554095238,0.2270642882613094,0.0205579188872416,1,16400000000
1.7176849446025743e+18,0.2421883616270706,0.0708376212421882,-0.0032069484395176,1,16400000000
1.7176849448025743e+18,-0.0722326881590833,-0.04364285506575,-0.0290079730987857,1,16400000000
1.7176849450025743e+18,-0.3069345767,-0.1448130210104235,-0.0862246835854823,1,16400000000
1.7176849452025743e+18,-0.3780780920607142,-0.0897909109697023,-0.0672150147972023,1,16400000000
1.7176849454025743e+18,-0.0518420254787857,-0.0513947977645357,-0.0275826627066428,1,16400000000
1.7176849456025743e+18,0.2447036150467058,0.1367947523116823,0.099702848671647,1,16400000000
1.7176849458025743e+18,0.5727538434523808,0.0217468898710714,0.0789038316090118,1,16400000000
1.7176849460025743e+18,0.1171371486276623,0.0746536203891,-0.0787867205839764,1,16400000000
1.7176849462025743e+18,-0.3193422204607143,-0.0990263392728571,-0.1123668079562857,1,16400000000
1.7176849464025743e+18,-0.4894922712761905,-0.0559397923781226,-0.1022296520927023,1,16400000000
1.7176849466025743e+18,-0.2001656637381035,-0.1085933713787764,0.0186110786558282,1,16400000000
1.7176849468025743e+18,0.1646233365195952,0.136011687207869,0.0808936300741666,1,16400000000
1.7176849470025743e+18,0.4453139396329411,0.0710532144982,0.1331045156042352,1,16400000000
1.7176849472025743e+18,0.1137484866025714,0.0414248977476428,-0.0595230653879404,1,16400000000
1.7176849474025743e+18,-0.103702101372847,-0.1187118762565647,0.0449305111924941,1,16400000000
1.7176849476025743e+18,-0.2255626232154761,-0.1895626296421904,0.0703637862744202,1,16400000000
1.7176849478025743e+18,-0.2914832226416666,-0.1582130754471071,0.0207106307100976,1,16400000000
1.7176849480025743e+18,0.0601486924505529,0.0748979584734258,-0.0153089103879729,1,16400000000
1.7176849482025743e+18,0.1715680873440476,0.1123049955080952,-0.0450427131109023,1,16400000000
1.7176849484025743e+18,0.2361517535317647,0.0953433764036588,-0.0405189357832164,1,16400000000
1.7176849486025743e+18,-0.0487005249935119,0.1092434873604464,-0.1411129885561904,1,16400000000
1.7176849488025743e+18,-0.1307518556527058,-0.0765346702271447,0.0141123683227058,1,16400000000
1.7176849490025743e+18,-0.2419027867916666,-0.2771973954047619,0.0279026303657499,1,16400000000
1.7176849492025743e+18,-0.0229649480927261,-0.0948740323803726,0.0248556659849404,1,16400000000
1.7176849494025743e+18,0.1461272403123529,0.1632336591214,0.0149963002130752,1,16400000000
1.7176849496025743e+18,0.3981851509571428,-0.2938284396813095,0.1310121928780952,1,16400000000
1.7176849498025743e+18,0.3816340101237647,-0.4739087767458824,0.1178333343549529,1,16400000000
1.7176849500025743e+18,0.9801198819478574,0.4932827952665476,-0.169860988422569,1,16400000000
1.7176849502025743e+18,0.3463031280039881,0.7145222201095238,-0.4664182386229762,1,16400000000
1.7176849504025743e+18,-0.2857058403166824,0.4895294000105882,-0.4119140686364706,1,16400000000
1.7176849506025743e+18,-0.1725934382420238,0.0089700010291666,-0.0697529387307857,1,16400000000
1.7176849508025743e+18,-0.1864611249611764,0.1267265515958447,0.0130559618172847,1,16400000000
1.7176849510025743e+18,-0.1432654979567107,0.0451554292858797,-0.0500312989956392,1,16400000000
1.7176849512025743e+18,0.0411261900268588,0.0545675246364823,0.1454085964512941,1,16400000000
1.7176849514025743e+18,0.0597030474033964,0.2550614541773809,0.0129005112847738,1,16400000000
1.7176849516025743e+18,-0.0107770910321714,0.1131630908008333,-0.0070320154608214,1,16400000000
1.7176849518025743e+18,0.001572033239027,-0.0309726507597764,0.0307202274556117,1,16400000000
1.7176849520025743e+18,0.0820353322662738,-0.0283571292305118,-0.0081955343022821,1,16400000000
1.7176849522025743e+18,0.0032824056409058,0.0554658291970588,-0.0088411158723258,1,16400000000
1.7176849524025743e+18,-0.0292334046023809,-0.0194053085521202,-0.0093954126136869,1,16400000000
1.7176849526025743e+18,-0.0053085537055297,-0.0794792271038095,-0.0038250673559428,1,16400000000
1.7176849528025743e+18,-0.0550930328237646,-0.0272500758878823,-0.0508314751962705,1,16400000000
1.7176849530025743e+18,-0.0150166618892773,-0.0076101386420357,0.0432028995037416,1,16400000000
1.7176849532025743e+18,0.0491390689384859,-0.0026437109903858,0.0155568423487905,1,16400000000
1.7176849534025743e+18,0.0038177953434678,0.0552562243980476,0.0086900292470238,1,16400000000
1.7176849536025743e+18,0.0011767791470352,0.0529577622303529,-0.013828504067667,1,16400000000
1.7176849538025743e+18,0.0228995001717857,0.0102935034803928,-0.0034760117964559,1,16400000000
1.7176849540025743e+18,0.0126314486065476,0.0188817251819404,-0.0058757689002583,1,16400000000
1.7176849542025743e+18,0.0155640287874353,0.0034144565238129,5.389758667058611e-06,1,16400000000
1.7176849544025743e+18,-0.007366527102494,-9.089991206071418e-05,-0.0044213706464904,1,16400000000
1.7176849546025743e+18,-0.0182769093663529,-0.024339568615647,-0.0039758970021776,1,16400000000
1.7176849548025743e+18,-0.0170528193178571,-0.0323349085323809,0.0015053021910916,1,16400000000
1.7176849550025743e+18,-0.0139794192200564,-0.0268835675525882,0.0007815251267282,1,16400000000
1.7176849552025743e+18,-0.012544184802544,-0.0168237515819297,0.0016725580123083,1,16400000000
1.7176849554025743e+18,0.0197507279168333,0.0365235756172857,-0.0013671343899345,1,16400000000
1.7176849722025743e+18,-0.6355057274647058,-0.8813367100141177,-0.0173570452635647,2,12400000000
1.7176849724025743e+18,-0.3283231306321428,-0.0039014229016071,0.049573163923119,2,12400000000
1.7176849726025743e+18,-0.0556307327990357,0.0518093007641988,0.0127041685893607,2,12400000000
1.7176849728025743e+18,0.082153566529647,0.0739924680856635,-0.0164802995459258,2,12400000000
1.7176849730025743e+18,0.2139928847405952,0.1088362559420595,0.0256555848161821,2,12400000000
1.7176849732025743e+18,0.4378337565552942,0.0204175692979647,0.1135008106722352,2,12400000000
1.7176849734025743e+18,0.2252644700045238,-0.0571396701423571,0.0834397348005833,2,12400000000
1.7176849736025743e+18,-0.121531657062847,0.0066411672418929,-0.0037863556707058,2,12400000000
1.7176849738025743e+18,-0.2901815356964285,-0.1266162743718333,-0.0281644220600714,2,12400000000
1.7176849740025743e+18,-0.2454442457210714,-0.2007251364166666,-0.0066684159742261,2,12400000000
1.7176849742025743e+18,-0.1359979558329059,0.0257858390126588,-0.0090926412792,2,12400000000
1.7176849744025743e+18,0.458542678327381,0.0623318721202381,0.046918886663369,2,12400000000
1.7176849746025743e+18,0.3615047980729411,0.0011938468552564,0.1102633200812588,2,12400000000
1.7176849748025743e+18,-0.0716727447095595,0.056543367832569,-0.0767558668674404,2,12400000000
1.7176849750025743e+18,-0.3592000037833333,-0.0503258150857857,-0.03467285391935,2,12400000000
1.7176849752025743e+18,-0.4093269492799999,-0.1363977017011294,-0.0781974322293529,2,12400000000
1.7176849754025743e+18,0.188824522177869,-0.001559842499619,0.0932841938771583,2,12400000000
1.7176849756025743e+18,0.2547286968188858,-0.0489028144622705,-0.0560155923472588,2,12400000000
1.7176849758025743e+18,0.3026511821154881,-0.0589431245719535,-0.0012435107160833,2,12400000000
1.7176849760025743e+18,-0.1396414801274117,-0.0501101363783176,-0.0485533742494117,2,12400000000
1.7176849762025743e+18,-0.3854009879833334,0.0861330992550821,-0.0162310841044738,2,12400000000
1.7176849764025743e+18,-0.1459052296998571,0.0017634584052011,0.0653315689237619,2,12400000000
1.7176849766025743e+18,0.2045889166821176,0.0779521944389376,-0.0374431404870705,2,12400000000
1.7176849768025743e+18,0.3615561294369047,-0.018169070391863,0.0955176046116666,2,12400000000
1.7176849770025743e+18,-0.1116646760423141,0.1387997689331059,-0.1214813505220941,2,12400000000
1.7176849772025743e+18,-0.1820542996584523,-0.1030477521905476,0.0241139228890238,2,12400000000
1.7176849774025743e+18,-0.2269370291571429,-0.1229511902367738,0.00911180461455,2,12400000000
1.7176849776025743e+18,-0.1112478618613882,0.0834498206586941,-0.0342595485746564,2,12400000000
1.7176849778025743e+18,0.254992371425,-0.0420575619735273,0.0578959577639202,2,12400000000
1.7176849780025743e+18,0.4183576106988235,-0.0012351692102247,0.1056172876429999,2,12400000000
1.7176849782025743e+18,0.0811045183866904,-0.1608818981445238,0.0191326091883333,2,12400000000
1.7176849784025743e+18,-0.2910884813349411,0.0529433896590211,-0.0215179927660235,2,12400000000
1.7176849786025743e+18,-0.1026514281833928,-0.0860603795947023,-0.0475079181530321,2,12400000000
1.7176849788025743e+18,-0.0277644630539738,-0.5062432998714286,0.1359562377605952,2,12400000000
1.7176849790025743e+18,0.1563346769605882,-0.5730888147349411,0.2430156996135529,2,12400000000
1.7176849792025743e+18,1.0236291090642855,0.138535068491369,0.0105062090819761,2,12400000000
1.7176849794025743e+18,0.2384091945065882,1.0721285679541177,-0.6909203515887177,2,12400000000
1.7176849796025743e+18,0.2777173429571429,0.7420612481452382,-0.6560281366904762,2,12400000000
1.7176849798025743e+18,-0.1635723182905059,0.3123666262011765,-0.2842326196732941,2,12400000000
1.7176849800025743e+18,-0.1113123675220797,0.0476860826226547,-0.026397328230119,2,12400000000
1.7176849802025743e+18,0.0097735562475,0.0212087623240714,0.1584703230256191,2,12400000000
1.7176849804025743e+18,-0.0822505834241494,-0.0964698496013058,-0.0405979869980058,2,12400000000
1.7176849806025743e+18,-0.1026077960719285,0.0721199725920833,-0.0921434000973809,2,12400000000
1.7176849808025743e+18,0.3147713896531329,-0.1064661857388364,0.3140931692529765,2,12400000000
1.7176849810025743e+18,0.0956994039436786,0.0657860682559881,0.2163671890289285,2,12400000000
1.7176849812025743e+18,-0.1993834547095238,0.0792901556845583,-0.0740215985927976,2,12400000000
1.7176849814025743e+18,-0.0819918714462353,0.1102336757357647,-0.0953227146585882,2,12400000000
1.7176849816025743e+18,0.0441046264068369,0.0343274344207142,0.010391675345563,2,12400000000
1.7176849818025743e+18,0.0149459951773788,0.0676252829464705,-0.0817403462615376,2,12400000000
1.7176849820025743e+18,0.0166528597086666,0.0177763824955678,-0.0219759573422107,2,12400000000
1.7176849822025743e+18,0.0461566968217646,-0.0263373982058823,0.0491318823067835,2,12400000000
1.7176849824025743e+18,-0.0007199272004464,0.0189544449860583,-0.0348691976823428,2,12400000000
1.7176849826025743e+18,-0.0393632885813809,0.0483769209655952,-0.0756359803657142,2,12400000000
1.7176849828025743e+18,0.0173103332113411,-0.0223992298441976,0.0271054486284941,2,12400000000
1.7176849830025743e+18,-0.0110097948625714,-0.0085409536028809,-0.0069520236409523,2,12400000000
1.7176849832025743e+18,-0.0214030100213388,-0.00635191324316,-0.0079931160366505,2,12400000000
1.7176849834025743e+18,-0.0065666080947583,-0.0234485355295238,0.0084573257527773,2,12400000000
1.7176849836025743e+18,-0.0134240957312023,-0.0127441644881666,-0.0024433890337369,2,12400000000
1.7176849838025743e+18,0.0016007791253141,0.0002596100917588,0.0005659320473317,2,12400000000
1.7176849840025743e+18,0.0102607795180511,0.0146276102224821,-0.0057739609818392,2,12400000000
1.7176849842025743e+18,0.0163042318838823,0.0174639435372941,-0.0066995572093105,2,12400000000
1.7176849844025743e+18,0.0106243790456821,0.0148748579948095,-0.0053740014943547,2,12400000000
1.7176849846025743e+18,0.0051077610619094,0.00797784482108,-0.0062611844336352,2,12400000000
1.7176850024025743e+18,-0.6091359909917646,-0.7265498182305884,0.0212808405219823,3,11800000000
1.7176850026025743e+18,-0.439657314642857,-0.4750982746213285,0.0828861557413785,3,11800000000
1.7176850028025743e+18,0.0479982215584941,0.4602877825969411,-0.0019313548502352,3,11800000000
1.7176850030025743e+18,0.1230275473942261,0.1583185199941666,0.0023561253475559,3,11800000000
1.7176850032025743e+18,0.1652952684267059,0.0590186247530353,0.0144896561768788,3,11800000000
1.7176850034025743e+18,0.3614543204440477,-0.1932468024448809,0.2217448265035713,3,11800000000
1.7176850036025743e+18,0.1291723790428929,-0.1709208812879761,0.0679349417708333,3,11800000000
1.7176850038025743e+18,-0.233199922655294,-0.0755618055352117,0.0038034225219494,3,11800000000
1.7176850040025743e+18,-0.3610470899916666,-0.0367962750985595,-0.0786393130389999,3,11800000000
1.7176850042025743e+18,-0.0314837863425647,0.0490582213236764,-0.10387816986576,3,11800000000
1.7176850044025743e+18,0.4338397208130953,-0.0484150991825357,0.0707128426300119,3,11800000000
1.7176850046025743e+18,0.1115047769877764,0.0069672519254647,0.0246297207881176,3,11800000000
1.7176850048025743e+18,-0.2667584527579761,-0.0147257815952202,-0.0637317305437381,3,11800000000
1.7176850050025743e+18,-0.321538362295238,-0.0645752823634821,-0.0129732321674523,3,11800000000
1.7176850052025743e+18,-0.0240673816671882,0.0339523285524,-0.0196099935561529,3,11800000000
1.7176850054025743e+18,0.3861500039011905,-0.1177226293008214,0.0798973670000202,3,11800000000
1.7176850056025743e+18,0.2545723920932353,-0.2541618657433528,0.2447072098756941,3,11800000000
1.7176850058025743e+18,-0.2487602751880952,0.1350045153585714,-0.0264336876234166,3,11800000000
1.7176850060025743e+18,-0.388447951435,0.2864510036909524,-0.2369069284947618,3,11800000000
1.7176850062025743e+18,0.0304992441006352,0.0955975963565411,-0.0616003529723094,3,11800000000
1.7176850064025743e+18,0.2800734683559523,-0.0719054494034404,0.0505912426283214,3,11800000000
1.7176850066025743e+18,-0.0251166015562941,-0.02867748198194,0.0175798244772588,3,11800000000
1.7176850068025743e+18,-0.1815161712384047,0.1268526147678023,-0.0430720035298035,3,11800000000
1.7176850070025743e+18,-0.182420551873447,-0.0348847676482811,-0.0818158041950141,3,11800000000
1.7176850072025743e+18,0.1037785866274749,0.137782417516119,-0.0054249053384285,3,11800000000
1.7176850074025743e+18,0.5439740302380953,0.0906744583344524,0.0930087675874166,3,11800000000
1.7176850076025743e+18,0.2231389086022353,-0.1644149290332529,0.084248412988087,3,11800000000
1.7176850078025743e+18,-0.1450907681320238,-0.0901017882226071,0.077999377519619,3,11800000000
1.7176850080025743e+18,-0.1698658432583529,0.1294026025541176,-0.0631382507842117,3,11800000000
1.7176850082025743e+18,-0.0225213568393797,0.0425047883163428,-0.0138240555038928,3,11800000000
1.7176850084025743e+18,0.1924096142226773,-0.3484420012937547,0.0625973003227738,3,11800000000
1.7176850086025743e+18,-0.2711452158464706,-1.1076753889541178,0.4706128989057647,3,11800000000
1.7176850088025743e+18,1.0924385141490476,-0.319128607902738,0.3405482560953928,3,11800000000
1.7176850090025743e+18,0.1892862939109293,1.062701749255647,-0.7689111700784823,3,11800000000
1.7176850092025743e+18,0.4107802379813691,1.0989142237761906,-0.9070763600083336,3,11800000000
1.7176850094025743e+18,-0.3714939446356236,0.3846361460058824,-0.4386943313442353,3,11800000000
1.7176850096025743e+18,-0.1453089274603571,0.071563665685488,0.0436392190178178,3,11800000000
1.7176850098025743e+18,-0.033305719484,-0.1008116137995119,0.065826064281794,3,11800000000
1.7176850100025743e+18,-0.0209772134764235,0.0231151783636823,0.0435731728697882,3,11800000000
1.7176850102025743e+18,-0.0444027785832023,0.0326803290768928,-0.042381164501869,3,11800000000
1.7176850104025743e+18,-0.0090620986734823,-0.0306753123039035,0.0247662632130317,3,11800000000
1.7176850106025743e+18,-0.0051994736838797,0.0182017938313869,-0.0041523068393607,3,11800000000
1.7176850108025743e+18,-0.0224216877047635,0.0190692141039694,-0.0141267411543447,3,11800000000
1.7176850110025743e+18,-0.0454790326095238,0.0173946029236154,-0.010297139558388,3,11800000000
1.7176850112025743e+18,0.0002327038066785,-0.0394505522808333,-0.0316986096580714,3,11800000000
1.7176850114025743e+18,0.0142507074920341,-0.0268377539690058,-0.0237134496730152,3,11800000000
1.7176850116025743e+18,-0.0239103069042857,0.0185581214904654,-0.0393560160886904,3,11800000000
1.7176850118025743e+18,0.0003593219363164,0.0059898964101129,-0.0152621984921411,3,11800000000
1.7176850120025743e+18,-0.0014180382768678,-0.0038905153026654,0.001236238545363,3,11800000000
1.7176850122025743e+18,-0.0138167832380595,-0.0071483672769357,-0.0114388420639761,3,11800000000
1.7176850124025743e+18,0.0062234556789541,-0.0077362008941105,-0.0022691178414447,3,11800000000
1.7176850126025743e+18,-0.0089590931947297,0.008995453050238,-0.001643469992988,3,11800000000
1.7176850128025743e+18,0.00712894685026,-0.0005713218273764,-0.0003144066803658,3,11800000000
1.7176850130025743e+18,-0.0013525903785583,-0.0062248244401202,-0.0039705071636583,3,11800000000
1.7176850132025743e+18,-0.0035932191837505,-0.0090297597312599,0.0014247113777294,3,11800000000
1.7176850134025743e+18,0.0270590792082523,0.0012798704485678,0.0235248914987023,3,11800000000
1.7176850136025743e+18,0.009904451873594,-0.0377998101487142,0.0168201155478464,3,11800000000
1.7176850138025743e+18,-0.0136901650303223,-0.007549353438467,-0.0178133840205317,3,11800000000
1.7176850140025743e+18,-0.0029306124696452,-0.010493483221494,-0.0215178217869047,3,11800000000
1.7176850142025743e+18,-0.0161263676304352,0.0226265011465882,-0.0022691179269717,3,11800000000
