Timestamps,Acc_X,Acc_Y,Acc_Z
1.71776460355656e+18,0.08411793300571428,3.3340311321904763,9.185840802857143
1.71776460375656e+18,0.040356079105499994,3.297949379,9.22676035315
1.71776460395656e+18,0.0257539443963,3.2901655654,9.2273516236
1.71776460415656e+18,0.08982071685689999,3.3935480804500004,9.03044359595
1.71776460435656e+18,0.0797316970865,4.023834892349999,7.85342621615
1.71776460455656e+18,-0.0788036270195,2.0797676010500004,8.644718216
1.71776460475656e+18,-0.335025810249,0.024698638878000057,9.04031556765
1.71776460495656e+18,-1.1765034484990475,-3.0023779514285716,10.671879141809525
1.71776460515656e+18,-1.88553151695,-4.6123735199,12.047292526999998
1.71776460535656e+18,-1.49243396755,-2.3568713608,9.35943695075
1.71776460555656e+18,-1.184247344845,-0.8508531418199998,9.566785766950002
1.71776460575656e+18,-1.42960961149,0.04100722504950001,9.698010383549999
1.71776460595656e+18,-1.1197539596960002,2.9295130463000003,8.0255383073
1.71776460615656e+18,-0.21939127349,3.42785673525,7.933315086399999
1.71776460635656e+18,-0.6721807642814286,1.2963684736523806,9.07100817004762
1.71776460655656e+18,-0.6728657683999999,-0.52011591343,9.518069572799998
1.71776460675656e+18,-0.9268501053775001,-2.3355332336499997,10.41043888135
1.71776460695656e+18,-0.949625244185,-3.6147805251499996,11.463506514999999
1.71776460715656e+18,-1.40312967677,-1.785240074165,10.3074829786
1.71776460735656e+18,-1.329370559685,-0.120095260631,9.18170404815
1.71776460755656e+18,-0.39886804958929994,1.64278880315,9.324701683199997
1.71776460775656e+18,-0.34995726015749995,3.30887665555,8.049825302150001
1.71776460795656e+18,-0.3472992161395238,3.142671922857143,8.485119389047618
1.71776460815656e+18,-0.78729531102,2.23462058265,8.964752700850001
1.71776460835656e+18,-1.1083027725949999,0.9464593277399999,9.010407760549999
1.71776460855656e+18,-1.56385045625,-1.1979738006390002,9.873759910699999
1.71776460875656e+18,-0.8671916657400003,-3.1462548294,11.356845818500002
1.71776460895656e+18,-2.43161842352,-2.3367082902249994,10.571960494299999
1.71776460915656e+18,-2.0573517150699994,-0.37805383302400003,9.707874870199998
1.71776460935656e+18,-1.432214551704762,0.5540050834047618,9.466086599666667
1.71776460955656e+18,-0.6082825699,2.6611585922500005,8.2159199066
1.71776460975656e+18,-0.6556590499705001,3.3450115128,8.6165617676
1.71776460995656e+18,-0.8239391098400001,2.78721894835,8.52002002715
1.71776461015656e+18,-0.764198341425,1.4740970993045002,8.638498649599999
1.71776461035656e+18,-1.100818336515,-1.0441761245199999,9.721721077050002
1.71776461055656e+18,-1.3011392669599997,-3.6217635041,10.3214639052
1.71776461075656e+18,-1.3549897842149998,-4.9262333451,11.150911560099999
1.71776461095656e+18,-1.5439037214761904,-2.323724931985714,9.811618064047618
1.71776461115656e+18,-1.34292487328,-0.274267158523,9.091890815899998
1.71776461135656e+18,-0.47866710663300005,1.482981124855,8.9614820023
1.71776461155656e+18,-0.11038794707999999,2.4087385024,8.658773986800002
1.71776461175656e+18,-0.312579986575,2.3321128462500003,8.8248461379
1.71776461195656e+18,-0.4248465271,1.522214538555,8.98542471315
1.71776461215656e+18,-0.500948272648,-0.34752481843500005,9.477863182050001
1.71776461235656e+18,-0.7785951887266668,-1.944691706952381,9.719844622190477
1.71776461255656e+18,-0.8200546875100001,-3.44242144775,10.8187073825
1.71776461275656e+18,-0.9659188614099999,-3.48200662995,10.754483437000001
1.71776461295656e+18,-1.2154200210654997,-1.6413143692000003,9.51366123985
1.71776461315656e+18,-0.6009104004449999,0.06635700987965001,9.5182267457
1.71776461335656e+18,0.236515663145395,0.7347021789700001,9.4943888172
1.71776461355656e+18,0.1481544113295,2.710795372,8.183033294700001
1.71776461375656e+18,-0.24759262848000002,2.1829106140500003,8.9475759201
1.71776461395656e+18,0.04849201747792381,1.4760947309666668,9.049866420285714
1.71776461415656e+18,-0.75106315615,-0.17786013793543,8.9913224488
1.71776461435656e+18,-0.63828767400375,-2.272319686885,9.917034919999999
1.71776461455656e+18,-1.2017085343233,-3.1033016509999998,10.02274509465
1.71776461475656e+18,-1.5327301712144998,-2.4004607162000005,9.961088310400003
1.71776461495656e+18,-2.2158496171,-1.87289778905,9.6252167581
1.71776461515656e+18,-2.7579024123999996,-1.0501037979000003,9.4688519211
1.71776461535656e+18,-2.203068695095238,-1.235388140047619,9.435778198238093
1.71776461555656e+18,-2.79417947385,-0.77993811037,9.376172149750001
1.71776461575656e+18,-2.3593861313,-0.8874744872549998,9.40335562125
1.71776461595656e+18,-1.2343032531750002,-0.8339981918299999,9.713151397699999
1.71776461615656e+18,-1.2476854248,-0.898551452635,9.755116630649999
1.71776461635656e+18,-1.3690829772,-0.89214477542,9.7503939514
1.71776461655656e+18,-1.1218121795500002,-0.7910899200399999,9.69056336985
1.71776461675656e+18,-1.2698236738095237,-0.6908704703238094,9.675436968238095
1.71776461695656e+18,-1.0472522278,-0.6755377120999999,9.62234273535
1.71776461715656e+18,-0.855201599125,-0.71819899748,9.665610260049998
1.71776461735656e+18,-0.9438996505499999,-0.83141606141,9.694081054750002
1.71776461755656e+18,-0.9960512009150001,-0.78246036529,9.759936607250001
1.71776461775656e+18,-0.89064788818,-0.8201220474250001,9.725463294999999
1.71776461795656e+18,-0.991732681265,-0.8316331100450001,9.69206025695
1.71776461815656e+18,-0.96779745483,-0.8861721954400001,9.7735657653
1.71776461835656e+18,-0.8525556727857142,-0.8426904732857142,9.726088779952383
1.71776461855656e+18,-0.81938857269,-0.76088273619,9.71357052615
1.71776461875656e+18,-0.8704923019649999,-0.6820192337,9.73542507935
1.71776461895656e+18,-0.9113722915599999,-0.6603592758200001,9.698032836900001
1.71776461915656e+18,-0.912203063965,-0.6254967727649999,9.6483511505
1.71776461935656e+18,-0.8772058410700001,-0.68538722992,9.72248448945
1.71776461955656e+18,-0.8895177383349999,-0.6885157241800001,9.7272296219
1.71776461975656e+18,-0.9256607927476191,-0.7121191406190476,9.697455466095239
1.71776461995656e+18,-0.8962312774699999,-0.803094955455,9.743530723549998
1.71776462015656e+18,-0.9003028106700001,-0.7879314880449999,9.704364669800002
1.71776462035656e+18,-0.860395797725,-0.7993377685599999,9.72185579685
1.71776462055656e+18,-0.943181144725,-0.8223224716299999,9.70917716205
1.71776462075656e+18,-0.9668619003200002,-0.8496930542050002,9.75429334255
1.71776462095656e+18,-0.90898475648,-0.75682617188,9.7292504196
1.71776462115656e+18,-0.866480644225,-0.71358110046,9.71720796215
1.71776462135656e+18,-0.9397101484000002,-0.6825805664190476,9.701026611285712
1.71776462155656e+18,-0.9068367233249999,-0.625399475095,9.664120857099999
1.71776462175656e+18,-0.9071136474599999,-0.6613247680650001,9.7166541138
1.71776462195656e+18,-0.8956100692650001,-0.68004334259,9.71330108665
1.71776462215656e+18,-0.9166188812449999,-0.69769912721,9.733606361350002
1.71776462235656e+18,-0.8892108764749999,-0.73965687563,9.709005020149998
1.71776462255656e+18,-0.9297615509,-0.7554640045250001,9.71254515845
1.71776462275656e+18,-0.9240641130619048,-0.7678104727619047,9.761550750714287
1.71776462295656e+18,-0.8446709976100001,-0.7380776595999999,9.7302084275
1.71776462315656e+18,-0.8887243881249999,-0.6824832687400001,9.73972114565
1.71776462335656e+18,-0.8862769775449999,-0.6307957534849999,9.705674446100002
1.71776462355656e+18,-0.88852230835,-0.6134543152,9.709903152349998
1.71776462375656e+18,-0.8353528747400001,-0.5668187942399999,9.66599945075
1.71776462395656e+18,-0.8906778259299999,-0.6053711242700001,9.730792213400001
1.71776462415656e+18,-0.888005882265,-0.62197908782,9.706976738049999
1.71776462435656e+18,-0.8683157566571429,-0.7047630092142858,9.736795087523811
1.71776462455656e+18,-0.890460777285,-0.71875284577,9.71262748725
1.71776462475656e+18,-0.90812404632,-0.7453300781400001,9.73612861645
1.71776462495656e+18,-0.9246272277850001,-0.781023353585,9.77164974965
1.71776462515656e+18,-0.867550918585,-0.71072204589,9.7523024826
1.71776462535656e+18,-0.88071604157,-0.6400240631099999,9.709910636950001
1.71776462555656e+18,-0.8765247573949999,-0.5937403106800001,9.71025492105
1.71776462575656e+18,-0.8947607639714287,-0.6239952523285714,9.646169259238095
1.71776462595656e+18,-0.9839862900149999,-0.6192622375450001,9.702538467650001
1.71776462615656e+18,-0.7594606933249999,-0.66630940243185,9.7437552565
1.71776462635656e+18,-0.9863663406099998,-0.6881864089749999,9.72048614505
1.71776462655656e+18,-0.86117417908,-0.7158114624049999,9.71300919345
1.71776462675656e+18,-0.9181980972250001,-0.734559974655,9.720950180100001
1.71776462695656e+18,-0.9063427505549999,-0.742164161685,9.75295362855
1.71776462715656e+18,-0.915466278095,-0.754910156255,9.7570251618
1.71776462735656e+18,-0.8777604021380954,-0.696059679295238,9.740900835333331
1.71776462755656e+18,-0.8890986099299999,-0.6252722396749999,9.73352403255
1.71776462775656e+18,-0.858113044735,-0.5654715957650001,9.666411094699999
1.71776462795656e+18,-0.90908953856,-0.5565800857500001,9.671710075350001
1.71776462815656e+18,-0.87924160767,-0.58984091949,9.7443240738
1.71776462835656e+18,-0.89767577362,-0.6181021499649999,9.898787864900001
1.71776462855656e+18,-0.864257766685,-0.4416490860000001,9.5239149171
1.71776462875656e+18,-0.8636682782428571,-0.623788539342857,9.675458352285714
1.71776462895656e+18,-0.8160355453699999,-0.730436050415,9.825679893750003
1.71776462915656e+18,-1.0330841904499999,-0.72573582459,9.77030255135
1.71776462935656e+18,-0.8627384262149999,-0.70778066254,9.732850433350002
1.71776462955656e+18,-0.8313561859049999,-0.613371986385,9.695967132499998
1.71776462975656e+18,-0.9055494003300002,-0.5744005279600001,9.659001503000002
1.71776462995656e+18,-0.928616432205,-0.62251048278,9.712986740050003
1.71776463015656e+18,-0.8654645429428572,-0.7050837707571429,9.730251552095236
1.71776463035656e+18,-0.9070013809149998,-0.7258031845049999,9.718076156550001
1.71776463055656e+18,-0.9335486755450001,-0.7376660156299999,9.71878717805
1.71776463075656e+18,-0.9044641570900002,-0.7617733840900002,9.72377929685
1.71776463095656e+18,-0.9082138595649999,-0.78692108917,9.77003311165
1.71776463115656e+18,-0.9047859878400001,-0.7107968902699999,9.721608810400001
1.71776463135656e+18,-0.9186995544000002,-0.65590603638,9.7306275557
1.71776463155656e+18,-0.8752898254149999,-0.631431930535,9.7251788865
1.71776463175656e+18,-0.8828284345380953,-0.5629008701809524,9.640866001714286
1.71776463195656e+18,-0.9013656005949999,-0.596000610355,9.712747238149998
1.71776463215656e+18,-0.902825065595,-0.6530844039850001,9.72302336875
1.71776463235656e+18,-0.903326522825,-0.66017216492,9.75822267155
1.71776463255656e+18,-0.87441414641,-0.69234027099,9.715823341299998
1.71776463275656e+18,-1.018878730745,-0.6785240020749999,9.69254674535
1.71776463295656e+18,-0.9577084350500001,-0.76130934905,9.773258903450001
1.71776463315656e+18,-0.9012971714523808,-0.6993955993619049,9.740686994238095
1.71776463335656e+18,-0.8904682617149999,-0.62981529236,9.727476608249999
1.71776463355656e+18,-0.899921104435,-0.603627250675,9.707373413050002
1.71776463375656e+18,-0.8683742065350002,-0.541715995785,9.65270709235
1.71776463395656e+18,-0.9032516784599999,-0.6095474395649998,9.703975479099999
1.71776463415656e+18,-0.898536483755,-0.6638769607549999,9.7323938828
1.71776463435656e+18,-0.8940757598899998,-0.7072043609549999,9.7372138597
1.71776463455656e+18,-0.9213714981099999,-0.7286697235099999,9.71617510985
1.71776463475656e+18,-0.9150542777,-0.7580379377095239,9.72576089047619
1.71776463495656e+18,-0.950104248,-0.7948096847549999,9.759255523749998
1.71776463515656e+18,-0.9009389877300003,-0.70121681214,9.732850433250002
1.71776463535656e+18,-0.8973838806149999,-0.66564328766,9.7141767654
1.71776463555656e+18,-0.9297241286750001,-0.6176979904050001,9.7143638763
1.71776463575656e+18,-0.8622220001249999,-0.597534919725,9.66548302475
1.71776463595656e+18,-0.9174122314500002,-0.633011146555,9.709064895600001
1.71776463615656e+18,-0.9146764918666667,-0.6659009661,9.710342952285714
1.71776463635656e+18,-0.919642593345,-0.717263442985,9.713877388099998
1.71776463655656e+18,-0.90885003663,-0.751886444075,9.7322067719
1.71776463675656e+18,-0.9151219940149999,-0.77545493316,9.722828773500002
1.71776463695656e+18,-0.9391170959599998,-0.8059839477499999,9.7566659088
1.71776463715656e+18,-0.88806575775,-0.731094680775,9.733943161
1.71776463735656e+18,-0.9025855636599998,-0.6902521133499999,9.722005485450001
1.71776463755656e+18,-0.907742340055,-0.6084771652200001,9.7247672424
1.71776463775656e+18,-0.8530974033904761,-0.5893743896523811,9.656989615285713
1.71776463795656e+18,-0.9041722640950001,-0.619135002125,9.694919311500001
1.71776463815656e+18,-0.8988807678149999,-0.6414236526600001,9.7146782226
1.71776463835656e+18,-0.898139808645,-0.6985673217749999,9.72642878725
1.71776463855656e+18,-0.9105864257849999,-0.721402336125,9.738823013449998
1.71776463875656e+18,-0.9181980972249999,-0.7324343948350001,9.71336096185
1.71776463895656e+18,-0.9186995544250001,-0.7658898239149999,9.72175849915
1.71776463915656e+18,-0.9175776018476188,-0.7636120605380952,9.750516553761905
1.71776463935656e+18,-0.91116272736,-0.7356601867650001,9.7345269471
1.71776463955656e+18,-0.93383308411,-0.66958010101,9.7568455352
1.71776463975656e+18,-0.8869730300899998,-0.5758450241149999,9.71423664085
1.71776463995656e+18,-0.8901688842800001,-0.5157674560500001,9.6541066818
1.71776464015656e+18,-0.8963585128749999,-0.488456748965,9.701737632699999
1.71776464035656e+18,-0.8805588684,-0.55440211487,9.740559402550002
1.71776464055656e+18,-0.92637858581,-0.545682746885,9.720658287100001
1.71776464075656e+18,-0.9136571829714286,-0.573899427142857,9.732354322047618
1.71776464095656e+18,-0.9225989455799999,-0.604839729305,9.721107353199999
1.71776464115656e+18,-0.9304800567599999,-0.6069204025300001,9.74535692605
1.71776464135656e+18,-0.88464537048,-0.6128929824849999,9.715583839399999
1.71776464155656e+18,-0.9761875076350002,-0.619628974915,9.721242073
1.71776464175656e+18,-0.9525292053450001,-0.60727965545,9.7359115677
1.71776464195656e+18,-0.9071735229549999,-0.6066434784000001,9.697493957400003
1.71776464215656e+18,-0.9701468549476191,-0.6355854361476191,9.715168631380951
1.71776464235656e+18,-0.9179585952799998,-0.6436465301550001,9.72101005565
1.71776464255656e+18,-0.9259070663450002,-0.6608457641550001,9.71163205725
1.71776464275656e+18,-0.94416160581,-0.70713700104,9.72603211215
1.71776464295656e+18,-0.89994355774,-0.729260993955,9.71456595615
1.71776464315656e+18,-0.949026489245,-0.74880285645,9.728352287350003
1.71776464335656e+18,-0.9444684677399999,-0.7418273620499999,9.75286381535
1.71776464355656e+18,-0.9006128801619047,-0.6855885968809524,9.728804561142859
1.71776464375656e+18,-0.910459190365,-0.64365401458,9.72067325585
1.71776464395656e+18,-0.9485549697750001,-0.5694458312999999,9.724467865
1.71776464415656e+18,-0.87746031189,-0.56334601592,9.674688881000002
1.71776464435656e+18,-0.94053913878,-0.542644065855,9.6805042878
1.71776464455656e+18,-0.92893826293,-0.58768540191,9.724175971900001
1.71776464475656e+18,-0.9412127380500002,-0.631020286565,9.7161451721
1.71776464495656e+18,-0.939760757435,-0.6460041275,9.736315727249998
1.71776464515656e+18,-0.9288042558904763,-0.6900151062000001,9.708311462380951
1.71776464535656e+18,-0.9658515015150002,-0.7120617599450001,9.721204650999997
1.71776464555656e+18,-0.9460776214550002,-0.759408302315,9.723075759850001
1.71776464575656e+18,-0.949872230525,-0.78503501129,9.7498475876
1.71776464595656e+18,-0.9339528350849999,-0.7254214782650001,9.71826326745
1.71776464615656e+18,-0.93641521451,-0.684945648195,9.727985549900001
1.71776464635656e+18,-0.9245074768050001,-0.631970809935,9.721489059500001
1.71776464655656e+18,-0.8832347324999998,-0.585710580004762,9.658465118428571
1.71776464675656e+18,-0.922696243285,-0.6245761871200001,9.6983022767
1.71776464695656e+18,-0.9054970092800001,-0.6446494445800001,9.7378500366
1.71776464715656e+18,-0.9300833816450002,-0.67897306825,9.710831222549999
1.71776464735656e+18,-0.9405840454349998,-0.7036567382750001,9.710262405449999
1.71776464755656e+18,-0.9212966537449999,-0.76166111755,9.72884626005
1.71776464775656e+18,-0.955029006955,-0.7763830032350001,9.711983825699999
1.71776464795656e+18,-0.9248068542400002,-0.778216690065,9.714887786899999
1.71776464815656e+18,-0.9766547502761904,-0.8082834516333334,9.741000627809525
1.71776464835656e+18,-0.9318048019350001,-0.733991157535,9.721631263650002
1.71776464855656e+18,-0.92782308197,-0.6999220047000001,9.71779923255
1.71776464875656e+18,-0.9314455489999997,-0.65044239807,9.72321796425
1.71776464895656e+18,-0.8857006759699999,-0.603282966615,9.6530813142
1.71776464915656e+18,-0.93759775544,-0.6407276001000001,9.69767358395
1.71776464935656e+18,-0.9262962570349998,-0.6680457916300001,9.714094436649997
1.71776464955656e+18,-0.9206711687619047,-0.7288272530666666,9.732724979904763
1.71776464975656e+18,-0.9446256408549999,-0.752717216485,9.7174399796
1.71776464995656e+18,-0.936714591985,-0.7655979309050001,9.71747740175
1.71776465015656e+18,-0.9746232604450003,-0.797287033085,9.7483581848
1.71776465035656e+18,-0.9430090026850001,-0.740472679135,9.73322465525
1.71776465055656e+18,-0.9259070663600001,-0.701845504765,9.71238798525
1.71776465075656e+18,-0.9549841003400001,-0.6520665206899999,9.7301485519
1.71776465095656e+18,-0.8815093917900002,-0.619337081905,9.682031112699999
1.71776465115656e+18,-0.9266302054285716,-0.6050418090809524,9.687761339476188
1.71776465135656e+18,-0.9257873153599998,-0.6244414672849999,9.722319831799998
1.71776465155656e+18,-0.9200467529349998,-0.6500831451449999,9.72904085535
1.71776465175656e+18,-0.934304603585,-0.66969236755,9.71428154755
1.71776465195656e+18,-0.920076690675,-0.6626270599349999,9.71233559425
1.71776465215656e+18,-0.94933335112,-0.694757743835,9.71827823645
1.71776465235656e+18,-0.9184226302999999,-0.68911447908,9.720089469799998
1.71776465255656e+18,-0.9251048060809524,-0.7216421944761905,9.700705849714288
1.71776465275656e+18,-0.957236915595,-0.74018078613,9.72815769195
1.71776465295656e+18,-0.9268650741550001,-0.77124119568,9.75921061705
1.71776465315656e+18,-0.936280494685,-0.71196446228,9.72072564695
1.71776465335656e+18,-0.9186396789450002,-0.658076522825,9.714857849099998
1.71776465355656e+18,-0.9380318527450001,-0.638706802365,9.711355133099998
1.71776465375656e+18,-0.8875119094899999,-0.584773956305,9.68612509915
1.71776465395656e+18,-0.9199943618800001,-0.591075851455,9.689103904700001
1.71776465415656e+18,-0.9430959647285714,-0.6287140110666668,9.73082892290476
1.71776465435656e+18,-0.8998238067700001,-0.65802413177,9.727656234600001
1.71776465455656e+18,-0.92923015594,-0.68029032898,9.71833062735
1.71776465475656e+18,-0.9384509811299999,-0.699562751765,9.73172028355
1.71776465495656e+18,-0.9235794067649999,-0.7027660903850002,9.710659080500001
1.71776465515656e+18,-0.930045959475,-0.6977365493799998,9.712230812049999
1.71776465535656e+18,-0.9243203658999999,-0.7101083221499999,9.702897720400001
1.71776465555656e+18,-0.9504378400571432,-0.7181352015904762,9.714783717476191
1.71776465575656e+18,-0.9206679611249999,-0.7481442260700001,9.7178142014
1.71776465595656e+18,-0.9327029342649998,-0.76427318573,9.714985084550001
1.71776465615656e+18,-0.964077690195,-0.7691305847100002,9.7505885468
1.71776465635656e+18,-0.929394813535,-0.7182064819349999,9.722948524600001
1.71776465655656e+18,-0.92283096313,-0.6557189254700001,9.715815856949998
1.71776465675656e+18,-0.9262962570350002,-0.6184464340349999,9.70598130785
1.71776465695656e+18,-0.9140217818949999,-0.5898633728100001,9.6549150009
1.71776465715656e+18,-0.9231089564809525,-0.6430342320142857,9.730878819047618
1.71776465735656e+18,-0.9341923370349999,-0.6692283325199999,9.74047707385
1.71776465755656e+18,-0.9498198394800003,-0.6264098739599999,9.638539055299999
1.71776465775656e+18,-0.8904158706750002,-0.6058875503500001,9.81519419825
1.71776465795656e+18,-0.89654562376,-0.62278740693,9.57727146155
1.71776465815656e+18,-0.99512313086,-0.69423383332,9.864651352
1.71776465835656e+18,-0.933137031565,-0.7052060165399998,9.640223053050002
1.71776465855656e+18,-0.9500244140952381,-0.7602547563904762,9.765449785571429
1.71776465875656e+18,-0.9373358001550001,-0.7651039581349999,9.745993103150001
1.71776465895656e+18,-0.9582248611099999,-0.6796391830399999,9.73177267465
1.71776465915656e+18,-0.8750802612349998,-0.6330485687249999,9.6130246124
1.71776465935656e+18,-0.9570273513899998,-0.6498361587450001,9.7441893539
1.71776465955656e+18,-0.8984691238499998,-0.6340589675849999,9.718121063249999
1.71776465975656e+18,-0.95368929287,-0.66727489471,9.69223239895
1.71776465995656e+18,-0.9460968671571428,-0.6697215925047619,9.707833884142856
1.71776466015656e+18,-0.96350887299,-0.727187805175,9.71294931795
1.71776466035656e+18,-1.0112595747950002,-0.77470648957,9.7640231094
1.71776466055656e+18,-0.92115444946,-0.72045929719,9.74308914185
1.71776466075656e+18,-0.9606573028900002,-0.6649921417250001,9.715299430799998
1.71776466095656e+18,-0.95373419955,-0.5899457015899999,9.7050831756
1.71776466115656e+18,-0.89936725615,-0.5684354324299999,9.658065948499999
1.71776466135656e+18,-0.9394464111299999,-0.590372314455,9.707283599899998
1.71776466155656e+18,-0.9335657828190476,-0.6083634730809524,9.720849674761903
1.71776466175656e+18,-0.9518780594050001,-0.6351442108099998,9.704896064749999
1.71776466195656e+18,-0.9362580413849999,-0.65836093139,9.718136032200002
1.71776466215656e+18,-0.9487345962550002,-0.6996974716100001,9.7171929933
1.71776466235656e+18,-0.9562040634200002,-0.698672103885,9.72540341955
1.71776466255656e+18,-0.94605516815,-0.74699162293,9.73343421935
1.71776466275656e+18,-0.9633891220249998,-0.72149214936,9.7313984528
1.71776466295656e+18,-0.933594294952381,-0.6762793840666667,9.719017769904763
1.71776466315656e+18,-0.9597367172299999,-0.6476132812400001,9.7196029816
1.71776466335656e+18,-0.9132359161349999,-0.58909996032,9.682921760549998
1.71776466355656e+18,-0.943495491025,-0.59495278931,9.669352478
1.71776466375656e+18,-0.9922865294650001,-0.6339541854849999,9.754704986550001
1.71776466395656e+18,-0.8860225067149999,-0.659992538455,9.69856423185
1.71776466415656e+18,-0.9621167679000001,-0.6839726715150001,9.7126948471
1.71776466435656e+18,-0.9507703628600002,-0.703828880315,9.7051505356
1.71776466455656e+18,-0.9393751308285716,-0.7284352111714284,9.721819087476192
1.71776466475656e+18,-0.9820178832900002,-0.72393207551,9.730650009050002
1.71776466495656e+18,-0.9524768142549999,-0.7280709686250001,9.73558973695
1.71776466515656e+18,-0.9717267837700001,-0.6868167572000001,9.7240786741
1.71776466535656e+18,-0.8976233825750001,-0.6361546096799999,9.72379426585
1.71776466555656e+18,-0.948046028135,-0.597437622075,9.69014424125
1.71776466575656e+18,-0.916903289805,-0.5527854766849999,9.667571182249999
1.71776466595656e+18,-0.9253329031809523,-0.6283718654047619,9.708083365238094
1.71776466615656e+18,-0.94785143281,-0.6476656723149999,9.7242882386
1.71776466635656e+18,-0.9198596420349998,-0.6602170715300001,9.7137202149
1.71776466655656e+18,-0.9687479781849998,-0.7014263763399999,9.7154790574
1.71776466675656e+18,-0.9262438659600001,-0.6981257400499999,9.72288116445
1.71776466695656e+18,-0.9640103302,-0.7223378906400001,9.715112319850002
1.71776466715656e+18,-0.98542330171,-0.7327113189600001,9.750955284049999
1.71776466735656e+18,-0.92283096313,-0.695551094055,9.72654853825
1.71776466755656e+18,-0.9475937543857142,-0.6547527204142858,9.71454849247619
1.71776466775656e+18,-0.946354545595,-0.593455902095,9.720568473700002
1.71776466795656e+18,-0.9092242584249999,-0.5771922226,9.652692123449999
1.71776466815656e+18,-0.9311386871349999,-0.59116566468,9.7143788452
1.71776466835656e+18,-0.9317748641950001,-0.5951174469,9.70324948875
1.71776466855656e+18,-0.9714498595400001,-0.64693219757,9.7154940261
1.71776466875656e+18,-0.94055410766,-0.6537355499300002,9.726803008949998
1.71776466895656e+18,-0.9459044102333333,-0.6955250767285714,9.706622118285715
1.71776466915656e+18,-1.001791763325,-0.70764594269,9.7222075653
1.71776466935656e+18,-0.939543708805,-0.749027389525,9.703982963650002
1.71776466955656e+18,-0.981748443605,-0.77000626374,9.743882492150002
1.71776466975656e+18,-0.9739870834649998,-0.7139702911550001,9.768117095699997
1.71776466995656e+18,-0.9333840179799999,-0.8367000732350001,9.7085335007
1.71776467015656e+18,-1.418555099605,-1.0640098800000002,9.592891479399999
1.71776467035656e+18,-1.3923820267,-1.0556797028299998,9.63707958985
1.71776467055656e+18,-1.3483674839047621,-1.0415626308428572,9.536276354190477
1.71776467075656e+18,-1.1997251587000002,-1.3300890656000002,9.6269980545
1.71776467095656e+18,-1.2848905564500002,-1.39735169215,9.6831837158
1.71776467115656e+18,-1.189658592115,-1.2763358458850003,9.5938794251
1.71776467135656e+18,-1.1391087112650002,-1.44723545835,9.697044891249998
1.71776467155656e+18,-1.510344223,-0.8853938141200001,9.613840415950001
1.71776467175656e+18,-1.6835415574000003,-0.76072556304,9.4868669584
1.71776467195656e+18,-0.9963423810190474,-0.9953587122238096,9.676363612571429
1.71776467215656e+18,-1.2635823669000001,-1.2437860335950002,9.696423683199999
1.71776467235656e+18,-0.9185947723200002,-1.34307456206,9.6030703125
1.71776467255656e+18,-1.0224562911699997,-1.2739333418999998,9.644092506400002
1.71776467275656e+18,-0.9213490448150001,-1.3093047867499998,9.6503569794
1.71776467295656e+18,-0.92790541077,-1.3450279997999999,9.660580719
1.71776467315656e+18,-1.016199302695,-1.2966036987499998,9.64428710165
1.71776467335656e+18,-0.9390258571095238,-1.3740141514761903,9.638542262380952
1.71776467355656e+18,-1.1149190139749998,-1.2928764497,9.62797851565
1.71776467375656e+18,-0.9667571181799998,-1.374988197315,9.882636451849999
1.71776467395656e+18,-1.53160002144,-2.01739979554,10.2294053418
1.71776467415656e+18,-2.7224037323999997,-2.6017321701999996,9.9933013226
1.71776467435656e+18,-1.80714701843,-1.9705397414499999,9.220009391450002
1.71776467455656e+18,-0.8942104797345,-0.84921405027,9.917004981899996
1.71776467475656e+18,-0.5039270782275,0.5082081756935,8.9984102098
1.71776467495656e+18,-0.09517351421142858,1.5748607744095238,9.117504337857143
1.71776467515656e+18,-0.5223687285734999,3.0283899307000004,8.110284576400002
1.71776467535656e+18,-0.8993298339995001,2.5410034561,8.403247856200002
1.71776467555656e+18,-0.8671168213164998,0.18119819640999998,9.1335491867
1.71776467575656e+18,-0.7742274857675,-1.77601924903,10.20072498265
1.71776467595656e+18,0.22276675413599997,-3.83977015685,11.220644051
1.71776467615656e+18,0.011728111269000002,-3.24208554835,10.549589515849998
1.71776467635656e+18,-0.017634756921904766,-1.9959921700619045,10.17481992404762
1.71776467655656e+18,-0.037062927261849975,-0.6064339140970001,8.796540000999999
1.71776467675656e+18,0.6866745529395,1.666798873945,8.9195242538
1.71776467695656e+18,0.76243201449,2.1659508819499997,8.73953853605
1.71776467715656e+18,0.82983684541,1.9742445372499997,8.5331926346
1.71776467735656e+18,0.877677360555,0.50338819888,8.816740493649998
1.71776467755656e+18,0.5921835480045001,-1.615642753645,9.330494636199997
1.71776467775656e+18,-0.28917615516149997,-4.1445064545,10.91767407875
1.71776467795656e+18,-1.317923649347619,-4.363326416047619,10.98171340895238
1.71776467815656e+18,-1.3793890457550002,-2.2941068802,9.464421135
1.71776467835656e+18,-0.8854387207100001,-0.7767272872975,9.4734773035
1.71776467855656e+18,-0.738788680996,0.46654980476999997,9.636540710650003
1.71776467875656e+18,-0.563031669618,2.165142562895,8.17978504945
1.71776467895656e+18,-0.2372192001295,2.3716531220000006,8.67669921105
1.71776467915656e+18,-0.4290378113012,1.6425418166949999,8.75004668425
1.71776467935656e+18,-0.23728513444238092,-0.3061134338466666,9.378682643095239
1.71776467955656e+18,-0.31069390865935,-2.0388202514,9.54786511275
1.71776467975656e+18,-0.4241878967529999,-4.3947261201,11.420291382
1.71776467995656e+18,-0.688418426565,-3.51826872245,10.7402854605
1.71776468015656e+18,-0.84291963963,-1.7679435424999999,9.477608710999998
1.71776468035656e+18,-0.184371597292,-0.524359588589,9.341324615400001
1.71776468055656e+18,-0.21022283934879993,0.8663983155049999,9.24114543915
1.71776468075656e+18,0.512489273075,2.28682452395,8.545556922649999
1.71776468095656e+18,0.39120077950047627,1.638086438952381,8.417787976761904
1.71776468115656e+18,-0.002417472874500004,0.237585937523,9.1910670775
1.71776468135656e+18,-0.3104394378975,-2.35412457275,10.040924789
1.71776468155656e+18,-0.5740263061465001,-3.41172029115,9.985435180749999
1.71776468175656e+18,0.321853202829,-4.24051679995,11.2532986443
1.71776468195656e+18,-0.7854242018970001,-1.9867809677049997,9.8034511186
1.71776468215656e+18,-0.25563091278000005,-0.5759423217555,9.417531143099998
1.71776468235656e+18,-0.0051749529114285915,0.931869310647619,9.285761587952381
1.71776468255656e+18,-0.49049999993800003,3.0290111389000005,7.767407592800001
1.71776468275656e+18,-0.28235783386,1.8388061828499995,8.515282379099999
1.71776468295656e+18,-0.5661451949860001,-0.261146942139,9.560109649900001
1.71776468315656e+18,-1.3513598327699998,-1.2919783173700001,9.6323419421
1.71776468335656e+18,-1.7049844665899996,-2.4516542587,10.51832702645
1.71776468355656e+18,-0.396473030055,-1.347610130373,10.150437057449999
1.71776468375656e+18,0.13062586216949995,-1.1707903290329997,9.7527590336
1.71776468395656e+18,-1.396795349138095,-0.40427359445238104,9.740366232904764
1.71776468415656e+18,-1.04662353512,-0.5404960327149999,9.75640395395
1.71776468435656e+18,-0.42576711273,-0.58976607514,9.8462471237
1.71776468455656e+18,-0.9847646713200001,-0.503425621025,9.782809043750001
1.71776468475656e+18,-0.9425299988000001,-0.4876933364849999,9.72022418985
1.71776468495656e+18,-0.9865759048050002,-0.386571121215,9.7202765807
1.71776468515656e+18,-0.8446784820650001,-0.36384088898,9.6748385697
1.71776468535656e+18,-0.8464754595142858,-0.3413758196142857,9.742411978476193
1.71776468555656e+18,-0.8491392059250001,-0.42077499389,9.69960456845
1.71776468575656e+18,-0.8679475936800001,-0.4613630905250001,9.736749824499999
1.71776468595656e+18,-0.92911788941,-0.49149542998500007,9.7160179367
1.71776468615656e+18,-0.901552711475,-0.6122568054149999,9.7510974884
1.71776468635656e+18,-0.8987460479699999,-0.6173836441,9.707515617399999
1.71776468655656e+18,-0.8930653610550001,-0.66975972747,9.73657019815
1.71776468675656e+18,-0.96816419221,-0.6918986892650001,9.77861775975
1.71776468695656e+18,-0.9274214172333334,-0.6257558768238095,9.72484137404762
1.71776468715656e+18,-0.8926911392200001,-0.53290681457,9.733419250550002
1.71776468735656e+18,-0.8752748565699999,-0.4706737289399999,9.729355201649998
1.71776468755656e+18,-0.8424705734349999,-0.46034520721000005,9.65092579645
1.71776468775656e+18,-0.8650810546900001,-0.463211746215,9.71516471095
1.71776468795656e+18,-0.76362203979,-0.46863796234000005,9.73312735735
1.71776468815656e+18,-0.8614511032,-0.5574407958950001,9.73823922745
1.71776468835656e+18,-0.8704256548190477,-0.554760655,9.719274379238096
1.71776468855656e+18,-0.86962410736,-0.5862932968100001,9.726309036200002
1.71776468875656e+18,-0.8440647582949999,-0.62016036987,9.732985153200001
1.71776468895656e+18,-0.825331214915,-0.6667584686150001,9.7428421555
1.71776468915656e+18,-0.86423531342,-0.632921333315,9.770407333500001
1.71776468935656e+18,-0.875551780675,-0.586442985525,9.73690699765
1.71776468955656e+18,-0.6527925109950001,-0.50705557252,9.742842155400002
1.71776468975656e+18,-0.848293464655,-0.481316596985,9.730215911799998
1.71776468995656e+18,-0.7987817818809524,-0.3865461730857143,9.633025163952382
1.71776469015656e+18,-0.7437433776799999,-0.483921180715,9.721526481600002
1.71776469035656e+18,-0.79819264985,-0.51154623413,9.75235487365
1.71776469055656e+18,-0.8022492141700001,-0.56020255279,9.730882026699998
1.71776469075656e+18,-0.8768690414399998,-0.6233337707500002,9.734279960550001
1.71776469095656e+18,-0.8286168823200001,-0.626986175525,9.72930281065
1.71776469115656e+18,-0.877482765195,-0.6959627380300001,9.7571973038
1.71776469135656e+18,-0.8672821916904762,-0.6892238943952381,9.751828111857142
1.71776469155656e+18,-0.82898361969,-0.58085959625,9.739766052300002
1.71776469175656e+18,-0.83199984741,-0.5455704803400001,9.7211073531
1.71776469195656e+18,-0.7805593185449999,-0.48402596282,9.70872061165
1.71776469215656e+18,-0.78788658142,-0.47232778930999997,9.685930503849999
1.71776469235656e+18,-0.79632154084,-0.5041516113350001,9.730612587000001
1.71776469255656e+18,-0.8123307495050002,-0.5452037429800001,9.71278466035
1.71776469275656e+18,-0.8437504119900001,-0.60756406403,9.760999397399999
1.71776469295656e+18,-0.8088109261714285,-0.5996601431714287,9.714070914190476
1.71776469315656e+18,-0.8266709289599999,-0.65255300903,9.74105337525
1.71776469335656e+18,-0.838825653075,-0.6831868057299999,9.719198822
1.71776469355656e+18,-0.8283324737649999,-0.6681580581750001,9.756867988649999
1.71776469375656e+18,-0.83721649933,-0.67832940675,9.745529068
1.71776469395656e+18,-0.834379898075,-0.5776861953699999,9.7441818694
1.71776469415656e+18,-0.7799006881749999,-0.5456303558250001,9.733531517000001
1.71776469435656e+18,-0.7862649536142856,-0.486531110495238,9.734036538285716
1.71776469455656e+18,-0.7742948455899998,-0.414375801095,9.654346183750002
1.71776469475656e+18,-0.763307693485,-0.46986540985,9.676006141650001
1.71776469495656e+18,-0.770582565315,-0.50222811127,9.758020591549998
1.71776469515656e+18,-0.8600664825500001,-0.600079627995,9.751958198549998
1.71776469535656e+18,-0.8312439193850001,-0.642718460085,9.734901168899999
1.71776469555656e+18,-0.841894271855,-0.660321853635,9.7388379822
1.71776469575656e+18,-0.8604891749714285,-0.6918184988809524,9.723743656714287
1.71776469595656e+18,-0.8563616867049998,-0.6789580993750001,9.753492507999999
1.71776469615656e+18,-0.815743652345,-0.6414236526500001,9.74959311675
1.71776469635656e+18,-0.8294102325499999,-0.5616320800700001,9.731765190249998
1.71776469655656e+18,-0.791082435615,-0.49801437376500013,9.725253730900002
1.71776469675656e+18,-0.7759039993250001,-0.463473701485,9.673858108500001
1.71776469695656e+18,-0.76289604951,-0.437719757065,9.710352218600002
1.71776469715656e+18,-0.8118592300399999,-0.5230498123199999,9.7488970642
1.71776469735656e+18,-0.8156609671523811,-0.5468271528047619,9.727599923190477
1.71776469755656e+18,-0.794210929875,-0.621230644225,9.7323265228
1.71776469775656e+18,-0.83735121918,-0.6530918884200001,9.74364299005
1.71776469795656e+18,-0.826221862795,-0.6542295227,9.737386001549998
1.71776469815656e+18,-0.851848571775,-0.67756599425,9.750962768449998
1.71776469835656e+18,-0.8164022827150001,-0.588508689875,9.742632591249999
1.71776469855656e+18,-0.8294551391599999,-0.559573860185,9.737266250649999
1.71776469875656e+18,-0.8182199314666666,-0.46697178430952374,9.73720138557143
1.71776469895656e+18,-0.7480394439700001,-0.46205914307,9.691528862050001
1.71776469915656e+18,-0.74671469879,-0.451708168035,9.68694838715
1.71776469935656e+18,-0.805841743465,-0.490964035025,9.730245849750002
1.71776469955656e+18,-0.8006774825999999,-0.55402040863,9.73467663575
1.71776469975656e+18,-0.82869921113,-0.5709277496399999,9.7450350953
1.71776469995656e+18,-0.810579391475,-0.6258934478799999,9.729033371
1.71776470015656e+18,-0.8255632324200001,-0.6457421722400001,9.74017769625
1.71776470035656e+18,-0.8379645865238095,-0.678332257952381,9.777146889809526
1.71776470055656e+18,-0.81599063873,-0.6079532547000001,9.740619278
1.71776470075656e+18,-0.7929236068700002,-0.522623199455,9.72386162575
1.71776470095656e+18,-0.783478248605,-0.489287521365,9.7442342607
1.71776470115656e+18,-0.7528444518999999,-0.39501356506,9.6965209809
1.71776470135656e+18,-0.76712475585,-0.40452628326499995,9.6831163558
1.71776470155656e+18,-0.7886275406,-0.44997926332000004,9.739331954899999
1.71776470175656e+18,-0.775729718895238,-0.5246589660666667,9.742960837285713
1.71776470195656e+18,-0.8169037399200001,-0.5749468917799999,9.738823013449998
1.71776470215656e+18,-0.8113203506449999,-0.6092929687399999,9.73282049555
1.71776470235656e+18,-0.84976041413,-0.6605613555949998,9.738852950950001
1.71776470255656e+18,-0.8339083786000001,-0.65541954804,9.749518272300001
1.71776470275656e+18,-0.8507184219400001,-0.6462885360749999,9.75936779025
1.71776470295656e+18,-0.8233927459750001,-0.5649402008,9.735170608550002
1.71776470315656e+18,-0.7872728576750001,-0.5375696182250002,9.734646698099999
1.71776470335656e+18,-0.8064444187714286,-0.487571803504762,9.729588644761904
1.71776470355656e+18,-0.76997632597,-0.43433679199499997,9.662773658799999
1.71776470375656e+18,-0.7786582717899999,-0.49455656432,9.719453292850002
1.71776470395656e+18,-0.8147257690349999,-0.52635793304,9.74940600595
1.71776470415656e+18,-0.8248222732549999,-0.5766757965250001,9.73759556575
1.71776470435656e+18,-0.8379424896250001,-0.606987762445,9.7389876709
1.71776470455656e+18,-0.8280929717950001,-0.646325958255,9.738441307199999
1.71776470475656e+18,-0.8541452244285713,-0.6434904261952381,9.723957497666667
1.71776470495656e+18,-0.8403599624750001,-0.668060760495,9.76224929815
1.71776470515656e+18,-0.85803071594,-0.6002517700250001,9.7367722778
1.71776470535656e+18,-0.851062705985,-0.5361176376300001,9.7339730987
1.71776470555656e+18,-0.8045020294,-0.503433105465,9.7280753632
1.71776470575656e+18,-0.7957527236999999,-0.46156517027,9.6771063537
1.71776470595656e+18,-0.8050633621250001,-0.49157775879,9.730896995550001
1.71776470615656e+18,-0.8306751022300001,-0.529643600455,9.728344802799999
1.71776470635656e+18,-0.8344932338142858,-0.5504838344,9.73801398142857
1.71776470655656e+18,-0.8286168823300001,-0.5919590149049999,9.730515289300001
1.71776470675656e+18,-0.8414302368150001,-0.601292106625,9.736847122250001
1.71776470695656e+18,-0.8375607833850001,-0.614479682915,9.731450843849998
1.71776470715656e+18,-0.84598825837,-0.6094651107899999,9.73235646065
1.71776470735656e+18,-0.83628842926,-0.6374643859850001,9.7188620224
1.71776470755656e+18,-0.85785857392,-0.643983329765,9.75271412655
1.71776470775656e+18,-0.845705631804762,-0.6143367658285713,9.746161324666668
1.71776470795656e+18,-0.817517463695,-0.5668786697300001,9.733479126
1.71776470815656e+18,-0.816514549245,-0.5037249984850001,9.737782676700002
1.71776470835656e+18,-0.8043822784400001,-0.46639263151999993,9.738755653399998
1.71776470855656e+18,-0.777797561645,-0.440735984815,9.702650734
1.71776470875656e+18,-0.7843913498,-0.4340299301149999,9.719355995199999
1.71776470895656e+18,-0.8017103347699999,-0.4602104873599999,9.7179788589
1.71776470915656e+18,-0.811522430425,-0.48413822936500006,9.74134526825
1.71776470935656e+18,-0.8070574297238096,-0.5422865949428571,9.736417301809523
1.71776470955656e+18,-0.81890208435,-0.5569917297399999,9.734399711650001
1.71776470975656e+18,-0.8182509384250001,-0.5737418975899999,9.72458761605
1.71776470995656e+18,-0.8164397049,-0.6204223251200001,9.7358142699
1.71776471015656e+18,-0.8518560562099999,-0.6394028549249999,9.774665977499998
1.71776471035656e+18,-0.82966470338,-0.5964197387650001,9.741846725399999
1.71776471055656e+18,-0.820503753655,-0.5462216262849999,9.742295791599998
1.71776471075656e+18,-0.790627310609524,-0.5046790858666665,9.727913556761903
1.71776471095656e+18,-0.77918966675,-0.42725651550000004,9.6808111496
1.71776471115656e+18,-0.7833435287449999,-0.4490062866150001,9.731578079250001
1.71776471135656e+18,-0.8046816558850001,-0.4724101181,9.755842620849998
1.71776471155656e+18,-0.78196639253,-0.50156948089,9.724460380550001
1.71776471175656e+18,-0.8143066406150001,-0.5280643844550001,9.729459983950001
1.71776471195656e+18,-0.7962167587300001,-0.5257816314599999,9.7235622482
1.71776471215656e+18,-0.827539123535,-0.5792878646799999,9.730635040249998
1.71776471235656e+18,-0.8118688528857141,-0.6081638881095238,9.78870856147619
1.71776471255656e+18,-0.82099024202,-0.59589582825,9.746831359949999
1.71776471275656e+18,-0.801178939815,-0.5325026550249999,9.7413153305
1.71776471295656e+18,-0.81320642853,-0.51492171478,9.742318244949999
1.71776471315656e+18,-0.724066795345,-0.451304008475,9.70002369695
1.71776471335656e+18,-0.8026758270200001,-0.422563774115,9.690840293900001
1.71776471355656e+18,-0.73836206818,-0.4948484573200001,9.73483380895
1.71776471375656e+18,-0.7843190002523809,-0.5146226937476192,9.743053501619048
1.71776471395656e+18,-0.8222251739450002,-0.5602175216699999,9.740364807099999
1.71776471415656e+18,-0.792916122435,-0.5858142929050001,9.727282013000002
1.71776471435656e+18,-0.8133411483599999,-0.6225404205399998,9.748605171200001
1.71776471455656e+18,-0.82623683166,-0.622892189025,9.7583723603
1.71776471475656e+18,-0.8005352783299999,-0.5937927017150001,9.7525345003
1.71776471495656e+18,-0.8040829009999999,-0.5386099548250001,9.74874737545
1.71776471515656e+18,-0.7538323974699999,-0.5122946777449999,9.73834400925
1.71776471535656e+18,-0.7870276532857142,-0.45143979755238095,9.680725969571428
1.71776471555656e+18,-0.7627239074800001,-0.4602030029299999,9.734085365199999
1.71776471575656e+18,-0.7692129135249999,-0.4977449340800001,9.725934814400002
1.71776471595656e+18,-0.78882213592,-0.503073852535,9.73497601325
1.71776471615656e+18,-0.7882982253999999,-0.5526208190899999,9.7408587799
1.71776471635656e+18,-0.8045693893500001,-0.5631514206,9.734399711550001
1.71776471655656e+18,-0.7831863556,-0.61414288329,9.734437133850001
1.71776471675656e+18,-0.8338445826952381,-0.6348084803999999,9.767025081095236
1.71776471695656e+18,-0.8076679458650002,-0.5746250610300001,9.7470933152
1.71776471715656e+18,-0.7956329727250001,-0.5526133346500002,9.742071258500001
1.71776471735656e+18,-0.7836578750550001,-0.47958020782500005,9.7382916183
1.71776471755656e+18,-0.777011695865,-0.45643084716499993,9.6711262893
1.71776471775656e+18,-0.794203445435,-0.46167743682999995,9.7419140855
1.71776471795656e+18,-0.7649916915899999,-0.50983978272,9.728951042199999
1.71776471815656e+18,-0.812592704775,-0.5316643981899999,9.7265560227
1.71776471835656e+18,-0.7919531249952382,-0.5638845389333331,9.732332938047621
1.71776471855656e+18,-0.8305179290850001,-0.61111917115,9.741330299400001
1.71776471875656e+18,-0.80974113464,-0.5981336746149999,9.72838970955
1.71776471895656e+18,-0.825660530095,-0.63801074982,9.73879307565
1.71776471915656e+18,-0.8494310989350001,-0.6249429245,9.759562385650002
1.71776471935656e+18,-0.790573493955,-0.5917644195499999,9.737917396650001
1.71776471955656e+18,-0.8103249206450001,-0.537951324465,9.733127357499999
1.71776471975656e+18,-0.8020107814380953,-0.4806219700476189,9.720600193476189
1.71776471995656e+18,-0.7109091568,-0.45574976348500007,9.6901592102
1.71776472015656e+18,-0.7995473327649999,-0.480725326535,9.760617691150001
1.71776472035656e+18,-0.736550834655,-0.558204208385,9.72679552455
1.71776472055656e+18,-0.749888099665,-0.44645409393,9.74265504465
1.71776472075656e+18,-0.7330106964149999,-0.557163871775,9.74260265345
1.71776472095656e+18,-0.7889942779599999,-0.522698043825,9.72883877565
1.71776472115656e+18,-0.7374094064480953,-0.5340109471,9.744899662666668
1.71776472135656e+18,-1.2535232849649998,-0.5073250122100001,9.73413775635
1.71776472155656e+18,-0.8505537642900001,-0.52324440767,9.7560447006
1.71776472175656e+18,-0.7886275405900001,-0.48652576446500007,9.73052277375
1.71776472195656e+18,-1.2452005919599998,-0.4040397949250001,9.70832393645
1.71776472215656e+18,-0.604083801275,-0.43992018127499993,9.70526280205
1.71776472235656e+18,-0.77339671326,-0.39544766235000006,9.7283822251
1.71776472255656e+18,-0.9071435852499998,-0.44036924742999994,9.73936189275
1.71776472275656e+18,-0.6152135140619047,-0.4864455740809524,9.748877105714286
1.71776472295656e+18,-0.682917366025,-0.43432182311000006,9.7555058213
1.71776472315656e+18,-0.7202272796599999,-0.51304312134,9.7407465133
1.71776472335656e+18,-0.7786882095300001,-0.459274932865,9.736001380949999
1.71776472355656e+18,-0.7462806015050001,-0.51035620881,9.73651780695
1.71776472375656e+18,-0.772775505065,-0.544365486145,9.739167297399998
1.71776472395656e+18,-0.7515421600349999,-0.5400095443699999,9.733419250499999
1.71776472415656e+18,-0.7863504900285715,-0.505798187252381,9.764273659809522
1.71776472435656e+18,-0.8863293685849998,-0.62735291289,9.7506559067
1.71776472455656e+18,-0.72738988495,-0.46940137482,9.746846328850001
1.71776472475656e+18,-0.687131103505,-0.4724101181000001,9.734863746650001
1.71776472495656e+18,-0.770687347415,-0.48817982483,9.729145637450001
1.71776472515656e+18,-0.802286636345,-0.41143441772000006,9.71036718745
1.71776472535656e+18,-0.7121740265050001,-0.4574262771649999,9.735993896549997
1.71776472555656e+18,-0.78442877198,-0.46557682799999994,9.7450800018
1.71776472575656e+18,-0.758636692604762,-0.5116503034238095,9.735533425571429
1.71776472595656e+18,-0.7803722076349999,-0.5106630706799998,9.8735727999
1.71776472615656e+18,-0.7254738693199999,-0.46387786103,9.559084282099999
1.71776472635656e+18,-0.8536298675499999,-0.5657335510249999,9.770923759350001
1.71776472655656e+18,-0.714666343685,-0.57847206117,9.736218429600003
1.71776472675656e+18,-0.894816719065,-0.633347946165,9.72481963345
1.71776472695656e+18,-0.668846626275,-0.574842109685,9.789522583000002
1.71776472715656e+18,-0.8737972150571429,-0.6420363071952381,9.747080841095238
1.71776472735656e+18,-0.752821998595,-0.529546302795,9.739264595
1.71776472755656e+18,-0.7727605361900001,-0.48690747071,9.738635902350001
1.71776472775656e+18,-0.7481217727649999,-0.45594435881999995,9.691468986550001
1.71776472795656e+18,-0.632053138735,-0.41331301116999997,9.717192993149999
1.71776472815656e+18,-0.814209342955,-0.48548542784999993,9.7393768615
1.71776472835656e+18,-0.72949301148,-0.5240452423149999,9.7418616944
1.71776472855656e+18,-0.7619006195000001,-0.546827865595,9.744571060150001
1.71776472875656e+18,-0.7760005842000001,-0.5906859479571428,9.730900203190478
1.71776472895656e+18,-0.7818167037999999,-0.61757823944,9.75930791475
1.71776472915656e+18,-0.79154647064,-0.62760738373,9.723165573100001
1.71776472935656e+18,-0.798417182925,-0.635907623285,9.7823300399
1.71776472955656e+18,-0.750651512145,-0.575545646675,9.748013900699998
1.71776472975656e+18,-0.7926616516050001,-0.54991893768,9.7385386047
1.71776472995656e+18,-0.7114929428149999,-0.47639932252,9.758282546899999
1.71776473015656e+18,-0.732540958947619,-0.44111127581428566,9.70021401547619
1.71776473035656e+18,-0.73407348632,-0.43016047668999996,9.722604240350002
1.71776473055656e+18,-0.7109316101100001,-0.48231202698000003,9.72990905005
1.71776473075656e+18,-0.767446586625,-0.49610584259,9.740342353700001
1.71776473095656e+18,-0.745449829085,-0.532487686155,9.7386583557
1.71776473115656e+18,-0.7821160812300001,-0.5914575576750001,9.749435943600002
1.71776473135656e+18,-0.755456520075,-0.5803431701699999,9.742692466800003
1.71776473155656e+18,-0.768778816225,-0.6323001251349999,9.740140274049999
1.71776473175656e+18,-0.800228772847619,-0.6339032200428572,9.780596858476189
1.71776473195656e+18,-0.749319282525,-0.59282720947,9.75190580755
1.71776473215656e+18,-0.757170455935,-0.5329741745050001,9.737243797300001
1.71776473235656e+18,-0.7262896728499999,-0.48341972351500007,9.74153237915
1.71776473255656e+18,-0.7269632720950001,-0.4382885742199999,9.688669807350001
1.71776473275656e+18,-0.71991293335,-0.4419110412549999,9.7322741318
1.71776473295656e+18,-0.7233033828750002,-0.47760431671500003,9.73068743125
1.71776473315656e+18,-0.7265819222523809,-0.5284083121190476,9.751357661619048
1.71776473335656e+18,-0.71679192352,-0.5458698577799999,9.74153237915
1.71776473355656e+18,-0.74990306854,-0.5968837737999999,9.746621795749999
1.71776473375656e+18,-0.7571405181899998,-0.601441795345,9.7887217483
1.71776473395656e+18,-0.7698116683999999,-0.5785843277,9.7657594986
1.71776473415656e+18,-0.6818396072449999,-0.49069459533499993,9.74707086185
1.71776473435656e+18,-0.7240742797749999,-0.4605921936,9.710681533699999
1.71776473455656e+18,-0.6737189941399999,-0.4317172393749999,9.6605507812
1.71776473475656e+18,-0.6867504664714287,-0.5261843654142857,9.817776685333333
1.71776473495656e+18,-1.0154508591250002,-0.5790034561199999,9.711512306100001
1.71776473515656e+18,-0.622285949705,-0.47678102875500006,9.7478342742
1.71776473535656e+18,-0.7512128448700001,-0.644192893975,9.76629089355
1.71776473555656e+18,-0.6690262527449999,-0.59950332642,9.808330970850001
1.71776473575656e+18,-0.7750732269349999,-0.49419731139999995,9.725927330000001
1.71776473595656e+18,-0.68326165008,-0.48150370787999996,9.647018920899999
1.71776473615656e+18,-0.6205951799714287,-0.5049927193857143,9.764822518571428
1.71776473635656e+18,-0.6672524414150001,-0.574939407355,9.745282081600001
1.71776473655656e+18,-0.7479720840449999,-0.5767805786099999,9.741816787749999
1.71776473675656e+18,-0.700049240105,-0.64530059051,9.7627432708
1.71776473695656e+18,-0.725024803155,-0.6612798614550002,9.77222605135
1.71776473715656e+18,-0.7276219024599999,-0.621485115045,9.7648987884
1.71776473735656e+18,-0.677738136285,-0.5775589599600001,9.75126214595
1.71776473755656e+18,-0.6370452575699999,-0.503822296155,9.7383440093
1.71776473775656e+18,-0.6854674203,-0.4788969857333332,9.681909223285714
1.71776473795656e+18,-0.7851847000150001,-0.5272036743200001,9.769793609649998
1.71776473815656e+18,-0.6144871673599999,-0.5724845123199999,9.737034233100001
1.71776473835656e+18,-0.7612345046999999,-0.59069414521,9.735866661
1.71776473855656e+18,-0.735697608945,-0.6333778839099999,9.7760880204
1.71776473875656e+18,-0.7597750396799998,-0.6898030471900001,9.794963768050001
1.71776473895656e+18,-0.6365662536600001,-0.5272410965,9.7790743103
1.71776473915656e+18,-0.7644389125190477,-0.4975795636952379,9.711533333999999
1.71776473935656e+18,-0.549514778135,-0.433708099365,9.70407277685
1.71776473955656e+18,-0.524299713135,-0.507878860475,9.74409205625
1.71776473975656e+18,-0.5936205596945,-0.45565246581999996,9.702792938200002
1.71776473995656e+18,-0.8017028503500001,-0.6491775283949999,9.79557000735
1.71776474015656e+18,-0.7708070983850001,-0.6032754821749999,9.7493685838
1.71776474035656e+18,-0.7202123107850001,-0.472193069454,9.6981525883
1.71776474055656e+18,-0.72096075439,-0.3829785919201,9.6950240936
1.71776474075656e+18,-0.6543107822857143,-0.4859466116761905,9.807989894190477
1.71776474095656e+18,-0.78798387907,-0.6476656722899999,9.876110023149998
1.71776474115656e+18,-0.82578776555,-0.752223243725,9.711834137299999
1.71776474135656e+18,-1.16787139892,-0.6544615402099999,9.874059288249999
1.71776474155656e+18,-0.3948189697169999,-1.25269251245,9.424424308699999
1.71776474175656e+18,-0.2863245849295,-0.7342306594750001,9.89198451215
1.71776474195656e+18,-0.924642196625,-0.8297994232199999,9.605824585000002
1.71776474215656e+18,-0.20225797381390478,-1.1294441659619048,9.804147883761905
1.71776474235656e+18,-0.26912535094650003,-0.9765542449919998,9.969500816800002
1.71776474255656e+18,-0.421508468637,-2.7652521286,11.530170387999998
1.71776474275656e+18,-0.6593264237130001,-1.06555915843,9.884934173449999
1.71776474295656e+18,-0.35017430877250005,0.8691525879065001,8.65748666385
1.71776474315656e+18,0.2536924438169,2.2157223816499996,7.89886422725
1.71776474335656e+18,0.44659629819499996,3.1453492127000002,8.525431274399999
1.71776474355656e+18,0.0955612792785,0.9625508652154998,8.7185895994
1.71776474375656e+18,-0.5598429434376191,-1.9248401314489048,10.334879935238096
1.71776474395656e+18,-0.8345295868755,-4.13061534115,10.851182351
1.71776474415656e+18,-0.3791839828344999,-2.9365409317,10.833429267449999
1.71776474435656e+18,-0.1691931609450001,-0.9218654708399999,9.645843864750002
1.71776474455656e+18,-0.3363580398535,0.24981550603189992,9.090551101349998
1.71776474475656e+18,0.4331317978324999,2.55744676205,8.14853752895
1.71776474495656e+18,-0.04911286925599999,2.8290719148,8.38136336515
1.71776474515656e+18,0.1253393554638095,1.3103394207857142,8.736439623142855
1.71776474535656e+18,-0.04475692748785,-0.7525675277475,9.410593071049998
1.71776474555656e+18,-0.9856253814850001,-3.3624727021,11.055978974599999
1.71776474575656e+18,-1.2500130843909998,-4.233503883400001,11.682314003799998
1.71776474595656e+18,-0.72052665718,-1.6626899185700001,9.450365363900001
1.71776474615656e+18,-0.470628822385,-0.20200492859245003,9.379682350150002
1.71776474635656e+18,-0.11968361664794999,0.7655455398320001,9.36879249635
1.71776474655656e+18,-0.5108091953523809,3.2558437238571427,8.110655234142857
1.71776474675656e+18,0.1791699143,2.5537569349999996,8.36000278475
1.71776474695656e+18,0.17458195497199996,1.0135498123134998,8.98987046825
1.71776474715656e+18,-0.4045113144100001,-0.7756121062725001,9.3758952258
1.71776474735656e+18,-1.271089256328,-3.13888265985,10.774489334
1.71776474755656e+18,-1.202606666545,-4.4761642685,11.48768872865
1.71776474775656e+18,0.980071929835,-2.31743586725,10.234809105250003
1.71776474795656e+18,0.08021070098000001,-0.6808591461500001,8.9404357683
1.71776474815656e+18,0.3852346148123809,0.9533674621428571,9.15591731442857
1.71776474835656e+18,1.576132415825,2.5174125137,7.7519297791
1.71776474855656e+18,0.30149553682125,2.23547380835,8.969056251099998
1.71776474875656e+18,0.7040908356645,0.6647900620275,9.194966468750001
1.71776474895656e+18,0.4955744476485,-1.3983396377099997,9.365888534699998
1.71776474915656e+18,0.801508255055,-3.0575343247,10.521335769699999
1.71776474935656e+18,0.07558531950349998,-3.8459597854000003,11.092128800200001
1.71776474955656e+18,0.39512119840999993,-3.3293836539047614,10.536318185571426
1.71776474975656e+18,0.05522016907099999,-0.58095689387255,9.364039879199998
1.71776474995656e+18,0.4357288970923,0.957438995403,8.406930199049999
1.71776475015656e+18,0.804719078025,3.2117137070000004,8.475989089850001
1.71776475035656e+18,0.9858798522341999,2.14695538335,8.2282841949
1.71776475055656e+18,0.6157295837519,0.49118108367,8.937876090950002
1.71776475075656e+18,-0.184206939679,-1.721330474865,9.432350326400002
1.71776475095656e+18,-0.46378804776999993,-4.906414558149999,12.704134117349998
1.71776475115656e+18,0.8041990879885714,-1.426847141795238,7.611286533904762
1.71776475135656e+18,0.016645385748999986,-1.8903814316000003,10.581847435450001
1.71776475155656e+18,-0.3651656341565,-2.2478530655,9.6065281216
1.71776475175656e+18,-0.059770706176,-2.1840407638,9.2802067108
1.71776475195656e+18,-0.17253870391499998,-2.1886811143,9.6818514862
1.71776475215656e+18,0.028351043697874993,-2.117534065349999,9.53705758675
1.71776475235656e+18,0.19504440307139997,-2.2369557266499998,9.63463966365
1.71776475255656e+18,-0.2987501743928571,-2.10366112847619,9.423603515523808
1.71776475275656e+18,-0.024399261480430003,-2.0941077804500003,9.48539252465
1.71776475295656e+18,-0.1083746337907,-2.14119236755,9.6401781464
1.71776475315656e+18,0.069260971062,-2.1759575729500003,9.4742481994
1.71776475335656e+18,-0.01701212311564,-2.0385508116999995,9.548179458549999
1.71776475355656e+18,0.13957724761575,-1.9300489426000003,9.5318109971
1.71776475375656e+18,-0.4695735168615001,-1.9224821777499996,9.6713957291
1.71776475395656e+18,-0.330812072751,-1.7794096985000003,9.5439881745
1.71776475415656e+18,-0.2073402622833333,-1.8210844639523809,9.746182708761907
1.71776475435656e+18,-0.24096676417714286,-1.7207680729999997,9.60620949857143
1.71776475455656e+18,,,
