Timestamps,Gyro_X,Gyro_Y,Gyro_Z
1.717764603560283e+18,-0.01797754257110952,-0.024379706386809523,-0.03308333791380952
1.717764603760283e+18,0.00488670491625,0.039177392889,0.0454677233015
1.717764603960283e+18,-0.0017360710598815002,0.005827717529650001,0.01042723543985
1.717764604160283e+18,-0.0356431420204,-0.019706849660949998,-0.0183882612502
1.717764604360283e+18,-0.61315855236,0.029227752375925998,0.0146573764272
1.717764604560283e+18,-0.583147224785,0.20820584594499997,0.16632537441540002
1.717764604760283e+18,-1.09784460963,0.11311397142889998,0.11717968834850001
1.717764604960283e+18,-0.6199780404619049,0.3447337100785714,0.0713133894944762
1.717764605160283e+18,0.17237090852375,0.05395036599665,0.030332157411000003
1.717764605360283e+18,0.47473059148,0.04039398486245001,0.13371662758249997
1.717764605560283e+18,0.354635882758,-0.31028020481835006,-0.023923329215999996
1.717764605760283e+18,0.7047534376350001,0.28736753780749996,0.302832226363
1.717764605960283e+18,0.530103603005,-0.3952421378375,-0.2496105851307499
1.717764606160283e+18,-0.19327490179855003,-0.007594539865649999,-0.014012710457935002
1.717764606360283e+18,-0.5978831024380953,0.07460873039095238,-0.059632889041142854
1.717764606560283e+18,-0.6985572040099999,-0.06272734140315,-0.10609014029819999
1.717764606760283e+18,-0.5394778117450001,-0.06094207800900001,-0.07930408437200001
1.717764606960283e+18,0.15342829282556,0.14744327683450004,0.08797112861699999
1.717764607160283e+18,0.6239131063200001,0.101841633024,0.15639233608050002
1.717764607360283e+18,0.6991706997199999,-0.161203993033,0.0409579074697
1.717764607560283e+18,0.622342295945,-0.10168535625469999,0.11772382096100001
1.717764607760283e+18,0.1730439950237,-0.04045975022645,-0.08450920996615
1.717764607960283e+18,-0.11908856497619047,0.03457729609242857,-0.012540495622142857
1.717764608160283e+18,-0.46712422073,0.18040577060200003,0.012701006885999996
1.717764608360283e+18,-0.7411037802649999,0.12635412179400002,-0.05289963330205001
1.717764608560283e+18,-0.57603307069,-0.029076462333949997,-0.08108813706850002
1.717764608760283e+18,-0.136747340861,0.14182570828149998,-0.0383757457205
1.717764608960283e+18,0.350510301435,0.18103857747865,0.13575269780030003
1.717764609160283e+18,0.5105612307749999,-0.06969518634750001,0.1431840791345
1.717764609360283e+18,0.7004660424761904,-0.29792548379571426,0.07220581838885715
1.717764609560283e+18,0.4837253563150001,-0.11496615512654998,-0.011460010475499998
1.717764609760283e+18,-0.0595624883471,-0.03291422385975,-0.05905829016200002
1.717764609960283e+18,-0.40346441921450005,0.01702333949455,-0.030014809059049997
1.717764610160283e+18,-0.894941875405,0.07982957577649999,-0.1909567972215
1.717764610360283e+18,-0.771295103435,0.06588150696714999,-0.06776134880499998
1.717764610560283e+18,-0.773181082305,-0.023407716363999992,-0.13292490020849998
1.717764610760283e+18,0.29634566167435,-0.00018088380124999665,0.034015600582
1.717764610960283e+18,0.6940488105761905,0.11722397636266667,0.17980488300476188
1.717764611160283e+18,0.767372778065,-0.2456238264215,0.01173978056716
1.717764611360283e+18,0.627213913215,-0.3319973081315,-0.0720584650768
1.717764611560283e+18,0.09828570365875,0.04820287525900001,0.013834285694849999
1.717764611760283e+18,-0.19713978544749997,0.015147534314449998,-0.018097638641000002
1.717764611960283e+18,-0.58243139536,0.0427593436129,-0.051794135477
1.717764612160283e+18,-0.664309608945,0.021575135842600002,-0.08984580407500001
1.717764612360283e+18,-0.5667764360047618,0.06389688610970476,-0.015433190568488095
1.717764612560283e+18,-0.14878392175865002,0.04547717748349999,0.007972523487249998
1.717764612760283e+18,0.329581057282,0.0050712292810000045,0.043930320533449994
1.717764612960283e+18,0.583372886475,0.049618999547550016,0.1429188891221
1.717764613160283e+18,0.49853743239500004,-0.389505506315,-0.059870035349
1.717764613360283e+18,0.632377842075,-0.04847261421650001,-0.05096373125110001
1.717764613560283e+18,0.05916299336720001,-0.024033493072055,-0.11797971883150002
1.717764613760283e+18,-0.133347751016,0.01572865229135,0.008081688499750002
1.717764613960283e+18,-0.5122997874285714,0.04793762074223809,-0.013523691556385711
1.717764614160283e+18,-0.7276160925549999,0.31713178828500005,0.14195742620040003
1.717764614360283e+18,-0.64771302492,0.10518311448249999,0.014609037665200001
1.717764614560283e+18,-0.16281414828300003,0.09969663924955,0.066338196952
1.717764614760283e+18,0.334446518875,0.24254795522,0.062329597769199996
1.717764614960283e+18,0.30451543258,0.2941524459165,0.26967160943900004
1.717764615160283e+18,0.043899027206252,0.03527202821031,0.04027964988373
1.717764615360283e+18,0.042893270739999996,0.03774725140161904,-0.027136538423142856
1.717764615560283e+18,0.110119082595,-0.082229225712,-0.06119234801689999
1.717764615760283e+18,0.03864034823570501,-0.26395353004,-0.033040142478449996
1.717764615960283e+18,-0.025621473556250003,-0.25191651507999996,-0.013517596295649997
1.717764616160283e+18,-0.0033525220237499995,-0.02350366757075,0.0003921369089499997
1.717764616360283e+18,0.027289849921865,-0.05545719262355,-0.009879945137000001
1.717764616560283e+18,0.03553138868900001,0.007929734431149998,0.0017379480995750002
1.717764616760283e+18,0.025323534074238093,-0.038701460564285715,-0.02584803385928571
1.717764616960283e+18,-0.0008904150426700001,-0.066614223644,-0.046161957272
1.717764617160283e+18,-0.033268896722300004,-0.0453525774993,0.004534072428615
1.717764617360283e+18,-0.01636116764322,0.01626425073555,-0.010561623377474998
1.717764617560283e+18,-0.00109525523725,-0.0048331158929605,-0.0064462824725584995
1.717764617760283e+18,-0.011024016001910001,0.009668176155200001,0.006551723297925001
1.717764617960283e+18,-0.01301220817225,0.005009557935099999,-0.004830968391519999
1.717764618160283e+18,0.0060826004599999995,-0.02393962414955,-0.0022108713981699997
1.717764618360283e+18,0.0265047390822381,-0.033354591931904765,-0.006650733218090475
1.717764618560283e+18,0.034184209257999996,0.001490010671,0.0054274171941
1.717764618760283e+18,0.022037657560349998,0.024182085135000003,0.014863054174899998
1.717764618960283e+18,0.01902687237545,0.0062214249049,0.0015071969944199996
1.717764619160283e+18,-0.005572550016295,-0.006647487298945001,-0.0032004138221850007
1.717764619360283e+18,-0.017166965677,-0.005694716027930001,-0.00197594260093
1.717764619560283e+18,-0.010695776902000001,0.01319199337075,0.0021116938209649995
1.717764619760283e+18,-0.026998062507095237,0.003250624308328571,-0.0040505757067000004
1.717764619960283e+18,-0.01021955252412,-0.010970171109759999,-0.005210312153449999
1.717764620160283e+18,-0.0084378401284,-0.0029204939373715004,-0.0039056202281
1.717764620360283e+18,-0.008929834759375001,0.0125516961906865,0.0067257550541650005
1.717764620560283e+18,-0.005544213528269999,0.0190926094075,0.0034022709352805004
1.717764620760283e+18,0.021886166953549994,-0.011032084131799999,0.0013305299507200001
1.717764620960283e+18,0.02338775263615,-0.012511065299600003,0.006423092819500001
1.717764621160283e+18,0.025071429368000005,0.00377790688045,0.004408587305755001
1.717764621360283e+18,0.019685754730238092,0.0036041060395714287,0.007245298287061905
1.717764621560283e+18,-0.0015365401167649992,-0.00424113214240775,0.0004164466459400001
1.717764621760283e+18,-0.0118327776788,-0.0026055943334954,-0.000450510636375
1.717764621960283e+18,-0.009841839829400002,-6.627283290850002e-05,-0.000999906152715
1.717764622160283e+18,-0.013933684135525001,0.0021280556918050007,-0.00193546822989
1.717764622360283e+18,-0.00956625269615,0.0026947750474600003,-0.0038812455023055506
1.717764622560283e+18,-0.007723675830699999,0.000559318042305,-0.0021247469355
1.717764622760283e+18,0.007322251763629999,-0.010365555018123808,0.00402089842547619
1.717764622960283e+18,0.020223171030849998,-0.010899346077442997,-0.000678622710946
1.717764623160283e+18,0.0280279998665,0.00598969314033,0.0013524831447649997
1.717764623360283e+18,0.019648186583500003,0.0009970421786299997,0.002330761839345
1.717764623560283e+18,0.008909072866949998,-0.006602485838885,0.0007084709243349998
1.717764623760283e+18,-0.0018251128843199999,0.001760212995715,-0.0003490737697520001
1.717764623960283e+18,-0.012866698111949997,0.007602406631060002,-0.001093134720595
1.717764624160283e+18,-0.02406623289045,-0.0022876024130150004,-0.003569987352325
1.717764624360283e+18,-0.015497950792142858,-0.000336382161157143,-0.005531394843238095
1.717764624560283e+18,-0.015404761723150001,0.008490226430449999,-0.0017565407848249997
1.717764624760283e+18,-0.013231650545735,0.00430215330551,-0.0012245519435450003
1.717764624960283e+18,0.01570393805269,-0.009206782666475,0.002854878047695
1.717764625160283e+18,0.028992304671999997,-0.004107960418330001,0.0026528104556999997
1.717764625360283e+18,0.030060456879500003,-0.0002161230194195,0.0039816205506
1.717764625560283e+18,0.01631432494565,0.003132805193005,0.0020399550325400006
1.717764625760283e+18,-0.03325994139752381,0.009159656075338096,-0.0006707703602619044
1.717764625960283e+18,-0.037301021908000005,0.009988621180045001,0.026903534610100005
1.717764626160283e+18,0.04018741445454999,-0.022678553499355,-0.040680241539450004
1.717764626360283e+18,-0.022258686963619996,0.01534849798665,-0.0017039743252650005
1.717764626560283e+18,-0.01618597779975,-0.00643246459081,-0.0020676123560530004
1.717764626760283e+18,-0.00871498894375,0.0068633741465,-0.004989656991925
1.717764626960283e+18,-0.006223645376450001,-0.0012968964176500002,0.00036120679006349996
1.717764627160283e+18,0.01787456073805,-0.0048936398003,0.00342538519775
1.717764627360283e+18,0.029732226261428567,-0.003143470446206143,0.0041849752776809525
1.717764627560283e+18,0.0330399294375,-0.00548888751086,0.004493588441919999
1.717764627760283e+18,0.016293349745154995,0.00490593301363955,0.0023664823151772
1.717764627960283e+18,-0.013924377103149999,0.0008779097467249998,-0.0020701078231000003
1.717764628160283e+18,-0.007327331584999999,-0.00185440523785,-0.0005236211232525
1.717764628360283e+18,0.039976069379649995,-0.011035223201115,-0.0010731929438
1.717764628560283e+18,-0.025743002630899996,0.010206360684400001,-0.006322962313430001
1.717764628760283e+18,-0.0430823192506619,-0.012718427925828573,-0.0023830956555238097
1.717764628960283e+18,-0.03198003689835001,0.03138987263569999,-0.0013847740830350002
1.717764629160283e+18,0.005290646347180001,0.0008665322555000004,0.00505215760773
1.717764629360283e+18,0.025414372584600005,-0.022010511858499997,0.007255504652285
1.717764629560283e+18,0.024032756127500006,0.005038522824085,0.0006808578327949998
1.717764629760283e+18,-0.006144905721929999,0.008177538565255,0.00045018597155799993
1.717764629960283e+18,-0.024354050913,0.0029157722019499998,0.0005931838182834999
1.717764630160283e+18,-0.01898298878247619,-0.005773332679523809,-0.0023989852939285713
1.717764630360283e+18,-0.01151283327565,0.010163965087100001,-0.00268337766167
1.717764630560283e+18,-0.010971274366500002,-0.0018991901190800002,0.0012666127818649997
1.717764630760283e+18,-0.012982836819779997,0.0007882259789549998,-0.0007058723770924999
1.717764630960283e+18,0.0194141939976,-0.00284318808701,0.001498288160675
1.717764631160283e+18,0.02778550256,-0.00017098643577399998,0.0030092202709500002
1.717764631360283e+18,0.022542467106950004,-0.0017097018656045497,0.0033692065858449997
1.717764631560283e+18,0.025122948550500002,-0.01123975206845,0.0012856476765000001
1.717764631760283e+18,-0.00028828352433333306,0.007688991791957142,0.00029529803538095244
1.717764631960283e+18,-0.0166354572405,0.0052253477043,-0.0007300322061
1.717764632160283e+18,-0.017951622534899996,-0.003941925149675,-0.0032918711773099996
1.717764632360283e+18,-0.01205240711535,0.0026180685962699994,-0.004118210286869499
1.717764632560283e+18,-0.007247753185200001,0.018975014437825,-0.00580312138199
1.717764632760283e+18,-0.0190391685349,0.0153549871762,-0.00098117685402
1.717764632960283e+18,0.010481324337800501,-0.022969459742000004,-0.00120663180129
1.717764633160283e+18,0.02782932252047619,-0.011039114535857143,0.006601909929571427
1.717764633360283e+18,0.024332482274,-0.0021818001347350003,0.0070249302079500005
1.717764633560283e+18,0.01156503205469,-0.0060220825021,0.0050734186310045
1.717764633760283e+18,-0.0072281981817499995,0.006507754605090001,-3.684919796000008e-05
1.717764633960283e+18,-0.021674572257,0.004116569657331,-0.0018769837101149998
1.717764634160283e+18,-0.02393630981645,-0.00021537755405000016,-0.0033215101692255
1.717764634360283e+18,-0.017767430911599998,0.004892315401255,-0.0036056837007700008
1.717764634560283e+18,-0.01211983440445,0.0035315142943499996,-0.0013914717710144999
1.717764634760283e+18,-0.013244405843809526,0.008553116505319048,0.0006518775176223809
1.717764634960283e+18,0.015548164921399998,-0.0105747708702,0.0006111217487899999
1.717764635160283e+18,0.027385468501499997,-0.0010901511997879999,0.0038390719448499998
1.717764635360283e+18,0.0238657304105,-0.00032616864190549994,0.0032652155030549997
1.717764635560283e+18,0.01357306923045,-0.005490826279398,0.0019229756433300001
1.717764635760283e+18,-0.0045741955692,0.002133228338995,-0.0009367019229
1.717764635960283e+18,-0.012697454774699999,0.0030872788862650003,-0.0006530333892934999
1.717764636160283e+18,-0.022388368268571428,0.005127387032704762,-0.003861135836409524
1.717764636360283e+18,-0.022431592667250002,-0.005404067470236151,-0.007236646837750001
1.717764636560283e+18,-0.0156774585122,0.0046475103822900005,-0.00556635512642
1.717764636760283e+18,-0.010062388226199998,0.0037163704515999997,-5.574267712499998e-05
1.717764636960283e+18,0.016018581071037,-0.006968797335714999,0.00123227174044
1.717764637160283e+18,0.025919440667,-0.0044854202194150004,0.003654668654665
1.717764637360283e+18,0.030061261076,-0.003187519358584,0.0057976963117
1.717764637560283e+18,0.02221701727255,-0.0019478730161705,0.005727510259200001
1.717764637760283e+18,0.000808975653842857,-9.193146104285691e-05,-0.002159478702780952
1.717764637960283e+18,-0.0129824416246,0.0044727470841900005,-0.0009871169750339998
1.717764638160283e+18,-0.02077953517435,0.005446691997635001,-0.0011363013705324998
1.717764638360283e+18,-0.020835972438049997,-0.0017824442009995,-0.00506090158585
1.717764638560283e+18,-0.00887953339245,0.003989784722235,-0.005499324970900001
1.717764638760283e+18,-0.009042233601650001,0.002903338905615,7.903543883200004e-05
1.717764638960283e+18,-0.008474789810795,0.0019338784044800003,-0.0008334343555500001
1.717764639160283e+18,0.009561849630870669,-0.001230350462752381,-0.0001387421728857144
1.717764639360283e+18,0.025311287959,-0.00183586252385,0.0050727479391
1.717764639560283e+18,0.038866563886,-0.0032512789709400005,0.00483093687795
1.717764639760283e+18,0.040173362661500005,-0.005990828806592999,0.00331341732526
1.717764639960283e+18,0.012607501555259998,0.000999839510805,0.0030443714116000003
1.717764640160283e+18,-0.009916586390795,0.0024912820432050004,0.0021636296704399998
1.717764640360283e+18,-0.00532336106315,-0.00025283545222000003,-0.004795933584611001
1.717764640560283e+18,-0.00806223258855,0.00335906064143,-0.0012601123540749999
1.717764640760283e+18,-0.013093655874038093,0.011580368892333333,0.0024788019613333333
1.717764640960283e+18,-0.011547419131884501,-0.0077580462560549995,-0.0037891335669450006
1.717764641160283e+18,0.00026134662325000003,0.00188887465041,-0.000659450539405
1.717764641360283e+18,-0.0005487552435200001,0.007758651883025,-0.00325144765661
1.717764641560283e+18,-0.004123434954024999,0.005606209428899999,-0.001406287669625
1.717764641760283e+18,0.002627141127615,-0.0034024122055099997,0.0017092097551899999
1.717764641960283e+18,-0.0036350044772500006,-0.000121006474125,0.00011679006282999999
1.717764642160283e+18,-0.010114290884147618,-0.0004693224163333333,-0.00012205612091428572
1.717764642360283e+18,-0.01067253824005,-0.0033863298013349996,0.0016749607340800002
1.717764642560283e+18,-0.0161751445848,-0.00047020725914,0.0005602824791700001
1.717764642760283e+18,-0.014049894472990002,-0.00106855056975,-0.000284806714625
1.717764642960283e+18,-0.012360303034350002,0.0036536767962099996,-0.001987479825055
1.717764643160283e+18,-0.0030604840780999996,0.0007353471125764999,0.00015159987381499997
1.717764643360283e+18,0.01641583540535,-0.006516318151599999,0.0021770881082500003
1.717764643560283e+18,0.026901513427142854,-0.004982012201571429,0.0022308727881538096
1.717764643760283e+18,0.02561341431,0.00312802942902,0.002515323279613
1.717764643960283e+18,0.017436681769064998,0.0019710204912745002,0.0055550386778
1.717764644160283e+18,0.008027496701849999,-0.00287366003007,-0.0026777608905765005
1.717764644360283e+18,-0.008377993060300001,0.008826322084640001,-0.0013853277952349998
1.717764644560283e+18,-0.0170017101335,0.0050219015916499994,-0.002006098220675
1.717764644760283e+18,-0.0212105858375,-0.002791332104225,-0.00680269363775
1.717764644960283e+18,-0.014432264304649996,0.0010845887823999997,-0.001539077446805
1.717764645160283e+18,-0.01639079888,0.00271348661877619,-0.0013607500254590478
1.717764645360283e+18,-0.01875588028985,0.003893499227355,-0.0002877393853785
1.717764645560283e+18,-0.015150887245200001,-0.00031618035853499986,-0.0018196306250150003
1.717764645760283e+18,0.015154464962699999,-0.0066308456241,0.0011719699949399999
1.717764645960283e+18,0.01905047497805,0.0004921354004950001,0.0046318450942050005
1.717764646160283e+18,0.023439430724549994,-0.010842817370049999,0.0030959111987160005
1.717764646360283e+18,0.021725813113000002,-0.004640080815095,0.00162676835907
1.717764646560283e+18,0.0030051492925476197,0.0001279998325714285,0.0010486519619380952
1.717764646760283e+18,-0.014690870902499997,0.00195914728068,-0.001344749133725
1.717764646960283e+18,-0.018239795649500002,0.006018802674850001,-0.007494697149900001
1.717764647160283e+18,-0.014564933440999999,0.0016056866967,-0.001937706250425
1.717764647360283e+18,-0.021062069479199995,0.004654790158315,-0.0008865498297225
1.717764647560283e+18,-0.01128545171845,0.0005688203730925001,-0.0039587521576565
1.717764647760283e+18,-0.007062809238949999,0.003274379845335,-0.00013798983428449987
1.717764647960283e+18,-0.0057734293978999995,0.0054356326465499994,0.00016649813619250002
1.717764648160283e+18,0.010275940400357142,-0.006236680694047619,0.0010306957910428572
1.717764648360283e+18,0.022229983145,-0.0036736391017099996,0.00413739972295
1.717764648560283e+18,0.024571031240000003,-0.004719934472914999,0.0031272472813450003
1.717764648760283e+18,0.021264714794450003,-0.00389350751674,0.004982476087515
1.717764648960283e+18,-0.0018255017402995,0.0012779589743600003,-0.00038687272464
1.717764649160283e+18,-0.014307811180899998,0.002516044024255,-0.00067646154777
1.717764649360283e+18,-0.023463138473,0.00449591900693,-0.0032825199886500006
1.717764649560283e+18,-0.015206701000047618,-0.002107546897468571,-0.004139100628893809
1.717764649760283e+18,-0.010887591261100001,0.00610103973894,-0.0003167396120120001
1.717764649960283e+18,-0.009704270841650002,0.007727117778300002,0.00022192921612849997
1.717764650160283e+18,0.004334416962670001,-0.0037185070570750003,-0.00057168282802
1.717764650360283e+18,0.0220720786131,-0.005343154224063001,0.0034156561013750004
1.717764650560283e+18,0.0243528453625,-0.00220627980307,0.0044241767376
1.717764650760283e+18,0.0200557051821,-0.005812004418065999,0.0044066615752
1.717764650960283e+18,0.011336459865980001,-0.004412045842841,0.0005983988405750001
1.717764651160283e+18,-0.005356878042323809,0.004225823717795239,-0.0001982728384990477
1.717764651360283e+18,-0.010739129339400001,0.0035293083171914997,0.000568119564545
1.717764651560283e+18,-0.00535314027256,-0.005200669541424499,-0.0023471718887069
1.717764651760283e+18,-0.00428410560715,0.0036015518824200005,-0.000392028962905
1.717764651960283e+18,-0.00801868862435,0.0035415551042300005,-0.00055365323205
1.717764652160283e+18,-0.010075879248065,-0.0029377234052089998,-0.0034001678693985
1.717764652360283e+18,-0.00879326243905,0.002225176035385,0.00020462601100500007
1.717764652560283e+18,-0.011908174469904761,0.004119271756195237,0.0003308014433857144
1.717764652760283e+18,-0.011807859899,0.002112913027445,-0.0011042842700344998
1.717764652960283e+18,0.0183329673019,-0.007891048245825,-0.00021541528405000002
1.717764653160283e+18,0.0226490465915,-0.0013208566466593,0.0039365639677500005
1.717764653360283e+18,0.0194336161485,0.00160414947902,0.0034384083352850003
1.717764653560283e+18,0.012855303060355,-0.00787970233965,0.0013228788155299999
1.717764653760283e+18,0.00764942588602,0.0009058685740285001,0.0004293245844949999
1.717764653960283e+18,-0.0093897367356,0.00669718150755,-1.4544709169999974e-05
1.717764654160283e+18,-0.013369278445238095,-0.004170912838885715,-0.0019490195248571427
1.717764654360283e+18,-0.012955076667950002,0.0023525441416750005,-0.0027355521569149997
1.717764654560283e+18,-0.008975838590649998,0.0028983895084759995,-0.0007756534381749998
1.717764654760283e+18,-0.00569766692335,0.0034493492219495,0.0008888539974599999
1.717764654960283e+18,-0.0049662293752585,-0.004492141830285,-0.001287760771845
1.717764655160283e+18,0.000449000377495,0.0011821256950965,-0.00036452927164500005
1.717764655360283e+18,-0.00647081783995,0.0035190777619750003,-0.000379688036728
1.717764655560283e+18,-0.010124959944290477,-0.0009438065657428572,-0.0011861500374085712
1.717764655760283e+18,-0.0074220986395700005,0.0021643961314,-0.0022228359361581495
1.717764655960283e+18,-0.0027480318799,0.004464910633145,-1.1724641075000053e-05
1.717764656160283e+18,0.016404640163,-0.0035621789282150014,0.0026285106783050004
1.717764656360283e+18,0.020359931045015,-0.007330768823099999,0.0023880681022035504
1.717764656560283e+18,0.0232748815785,-0.0005614251015249999,0.0034505590098050003
1.717764656760283e+18,0.0161212648736,0.0001223465661009001,0.0039378441985655
1.717764656960283e+18,-0.00673524561942,0.0005999431478649999,-0.0010368971794400001
1.717764657160283e+18,-0.013067648833714286,0.001906845785165714,-0.002652241227619048
1.717764657360283e+18,-0.004644705093555,0.0019510686979300005,-0.000668244785555
1.717764657560283e+18,0.049694260447,-0.012371925660135,-0.00499636367895
1.717764657760283e+18,-0.05423758388384999,0.005117805990030001,0.00362003617325
1.717764657960283e+18,0.009250275698100002,0.006075699684915001,-0.00715346200159
1.717764658160283e+18,-0.029763964749150006,0.009973928798909997,0.0033953510334675
1.717764658360283e+18,-0.014872854104364999,0.0014714588060149997,-0.00307829725797
1.717764658560283e+18,-0.005880978839476191,-0.005522992417711905,-0.0002666749281761906
1.717764658760283e+18,0.01708303730085,-1.4245638266000004e-05,0.00221517332849
1.717764658960283e+18,0.030371285324,-0.006698192516750001,0.00738235362785
1.717764659160283e+18,0.005685939703449999,-0.0033337611120499997,0.00019046913952
1.717764659360283e+18,0.0019639292615499996,0.006668240518314999,-0.00028367722989500004
1.717764659560283e+18,-0.0024876891169000005,0.001662953523335,7.268552427400001e-05
1.717764659760283e+18,-0.01285688643135,-0.00080479289178,-0.00483208891261
1.717764659960283e+18,-0.016505772380952383,0.010725674030000002,-0.0037573867124523824
1.717764660160283e+18,-0.022107995767500003,0.00946950555073,-0.00056671526978
1.717764660360283e+18,0.007615932782,-0.00942124481086,-0.001636894361588
1.717764660560283e+18,0.025297587457500003,-0.004850368026794999,0.004496774123915
1.717764660760283e+18,0.030434131062999997,-0.0012519908719449998,0.0064487410827999995
1.717764660960283e+18,0.01806490893273,-0.005148134100945001,0.00072690553498
1.717764661160283e+18,0.004127725254145001,-0.005391432624272699,3.9081088299999525e-06
1.717764661360283e+18,-0.0082451548424,0.0073230355045,-0.0004038498039055001
1.717764661560283e+18,-0.009831650027380952,0.003448318091371428,-0.00044231453269809535
1.717764661760283e+18,-0.018454587250350003,-0.003479318949349999,-0.004441428178759999
1.717764661960283e+18,-0.016197112388,0.0051856400909649995,-0.002082148136115
1.717764662160283e+18,-0.012718929513650001,0.0005290439467000001,-0.003113371308435
1.717764662360283e+18,-0.010644571337170002,0.003765400231600001,0.000751387619
1.717764662560283e+18,0.0042093947587150005,-0.0012238433468179997,-0.0009432315127549998
1.717764662760283e+18,0.0153353151405,-0.0034279914574225,0.00324312127193
1.717764662960283e+18,0.019064373159047618,0.00012760660392095233,0.0035133652966428575
1.717764663160283e+18,0.015364239008149996,-0.006879511789799999,0.004665865201863501
1.717764663360283e+18,0.009540897362576002,0.001914168801135,0.001175354799435
1.717764663560283e+18,-0.0124477022794,0.0058690383448,-0.0012972781725194998
1.717764663760283e+18,-0.0108632912338,-0.0036641341750300004,-0.001391708356185
1.717764663960283e+18,-0.010935618873325,-0.0013556984725499998,-0.001775461179155
1.717764664160283e+18,-0.0098785064181,0.00622047641045,-0.0018615999956479996
1.717764664360283e+18,-0.0136093233941,0.002816241793102,-0.0018790300819014998
1.717764664560283e+18,-0.006467642151666667,-0.0039023528142619044,-0.00750889188927619
1.717764664760283e+18,-0.0004183635354600001,0.005550818960769999,0.0019249528355
1.717764664960283e+18,0.013404850056599998,-0.0015436383895700001,0.005718854244249999
1.717764665160283e+18,0.021315603750000002,-0.010366546071205001,0.0057178200163750005
1.717764665360283e+18,0.020901503134500003,-0.003929560561205,0.00571772026575
1.717764665560283e+18,0.015341439419350001,-0.0026404944714149997,0.0037232229021449993
1.717764665760283e+18,-0.010862612124400001,0.006997033674644999,0.000598261936078
1.717764665960283e+18,-0.011402234762809523,-0.004053763180490476,-0.005725217578476191
1.717764666160283e+18,-0.010822648323,0.0025926410802550003,-0.0014494594069795
1.717764666360283e+18,-0.0132879924732,0.0081642954726,-0.0013835848832835
1.717764666560283e+18,-0.014398721897050002,-0.004852256400225,-0.0055487859644000005
1.717764666760283e+18,-0.008003833308300002,0.00450780205445,-0.0024916259631200003
1.717764666960283e+18,-0.006273407925690001,0.006895734101615,0.0015561791835350003
1.717764667160283e+18,0.012489639635260003,-0.005785410431575,0.0014646786207295
1.717764667360283e+18,0.0209377477875,-0.006038950756192001,0.0015111089684100001
1.717764667560283e+18,0.023527041876666665,-0.00011308573270809513,0.004990642557714286
1.717764667760283e+18,0.013968985375929999,-0.0024004417586595004,0.00200903533264
1.717764667960283e+18,0.0031572475801299993,-0.0041396433719749996,0.00048370345608999996
1.717764668160283e+18,-0.004753809835620001,0.005132747080600001,0.000284641771607
1.717764668360283e+18,-0.01319670535205,0.011582156363749999,-0.0003163175831825
1.717764668560283e+18,-0.01696659908505,-0.00540212122678,-0.0058781326050700005
1.717764668760283e+18,-0.015018433098799999,0.00486221473005,-0.0004910338437499999
1.717764668960283e+18,-0.012875604975999998,0.0043441120734666674,-0.002162630680838095
1.717764669160283e+18,-0.014646378881950004,0.0028416304269365004,-0.0015406648627849999
1.717764669360283e+18,-0.008637192048150001,0.0004899878524864999,-0.00265114886018
1.717764669560283e+18,0.009890771528700002,-0.0006151385373885003,0.0014919849928050001
1.717764669760283e+18,0.007684687150080001,0.012342402315999998,-0.0230706880333
1.717764669960283e+18,-0.14547566967349995,0.121155023858,-0.00231538664065
1.717764670160283e+18,-0.04006587428655,0.07482142751490002,0.004247150919349999
1.717764670360283e+18,0.005479074269600001,-0.015604526526349999,0.010311359912470001
1.717764670560283e+18,-0.03951982475304762,-0.025270104508049996,-0.005466060125432858
1.717764670760283e+18,-0.1078426312775,-0.0130140289899295,-0.020122263720199998
1.717764670960283e+18,-0.021621347869850004,-0.007335722958650001,0.0014799372404000004
1.717764671160283e+18,0.017325081204300003,0.0105377724855,0.0030695265740450007
1.717764671360283e+18,0.12098146677450002,0.040034599649050005,-0.00352133215647
1.717764671560283e+18,0.1782135702595,0.07922371859050001,0.043410061301
1.717764671760283e+18,-0.09615667420025,-0.09051610884030001,0.012623725609150002
1.717764671960283e+18,-0.11055739525809523,-0.08541607585933332,-0.06435579753285714
1.717764672160283e+18,-0.0826679521185,-0.01033680490794,-0.026359864510650005
1.717764672360283e+18,0.017862929389175,-0.06328600449550001,-0.008779013285329998
1.717764672560283e+18,0.014933703688949997,-0.0223774009371,0.029087470146
1.717764672760283e+18,-0.011759766980214999,-0.006871825339950002,0.005365053401365
1.717764672960283e+18,-0.0019330954413260004,0.006137923954495,-0.0050188916210242
1.717764673160283e+18,-0.02372111338125,0.02181419693075,-0.00865634795646
1.717764673360283e+18,-0.0010094693923352383,0.01803737991914286,-0.016328572673047617
1.717764673560283e+18,-0.006335565209135001,0.015969466523300002,-7.136333689500007e-05
1.717764673760283e+18,-0.01046334535475,-0.011051922547250003,-0.036191301385800005
1.717764673960283e+18,-0.222353478535,0.6617418441899999,0.031578728929
1.717764674160283e+18,0.01822053752949999,-0.14877115816112,-0.1803783371135
1.717764674360283e+18,0.31160284727500004,-0.42287116051000007,0.130715603847
1.717764674560283e+18,0.6012576490500001,-0.13162611772785,0.24643892910410004
1.717764674760283e+18,0.5207137361199999,-0.19720111313150002,0.040750951224
1.717764674960283e+18,0.4240327065904761,0.10678545163761904,-0.06662133544333333
1.717764675160283e+18,0.03912832483025499,-0.10911240535500003,-0.0962108794565
1.717764675360283e+18,-0.48437611237,0.10781078189300002,0.039316827385599995
1.717764675560283e+18,-0.700856292245,-0.004538379981799999,-0.07789709167799999
1.717764675760283e+18,-0.75159382674,-0.28208789304,-0.18185368776350003
1.717764675960283e+18,-0.3298187760695,-0.16143443473299998,-0.14106283997532998
1.717764676160283e+18,0.325771834705,0.050982094934999986,0.0361364146689
1.717764676360283e+18,0.4842831166,-0.05946659009404763,-0.09396316271080951
1.717764676560283e+18,0.65334624053,-0.11127297990349998,-0.0177606122071
1.717764676760283e+18,0.33165210132100004,-0.25417908547455004,-0.23996275271950002
1.717764676960283e+18,0.0893305860695,0.08425378705535,0.114488188169
1.717764677160283e+18,-0.3068887092205,0.0015897669359499998,0.02793581701055
1.717764677360283e+18,-0.6181277677500001,0.0051621532523499995,0.08493487730329999
1.717764677560283e+18,-0.75414693952,0.19239258989,0.1738144569235
1.717764677760283e+18,-0.472869014003,0.54520443082,0.08631630430255001
1.717764677960283e+18,0.2835303491780952,0.09878126886842857,0.02140718356695238
1.717764678160283e+18,0.51882121712,-0.011507935090350002,0.26372737214
1.717764678360283e+18,0.58374115379,0.0198752011145,0.0362911547565
1.717764678560283e+18,0.652300867435,-0.19410087341695,0.027677054751150003
1.717764678760283e+18,0.39412444223999993,-0.016048439312915,0.08634588887628
1.717764678960283e+18,-0.21701808907499998,-0.03432001319043,-0.06132006617529998
1.717764679160283e+18,-0.525689800075,-0.21007734989028,-0.23634704797999997
1.717764679360283e+18,-0.7408382693952381,0.005211896430000002,-0.17318281976142857
1.717764679560283e+18,-0.561652274425,-0.012389696716500004,-0.016863936941800002
1.717764679760283e+18,-0.23539603576499996,0.063201676215,0.0335248843295
1.717764679960283e+18,0.2645422059075,0.12708336644375,0.08456490257414999
1.717764680160283e+18,0.6701670050699999,-0.066889832777,0.07157233749099999
1.717764680360283e+18,0.52093797475,-0.12302494509699997,0.041955388615000005
1.717764680560283e+18,0.54984924645,-0.29865775928499994,-0.12122337050395
1.717764680760283e+18,-0.056782996188800006,0.084122747741,0.0842576521452
1.717764680960283e+18,-0.2785013227161905,0.028252082411047624,0.021428604611142852
1.717764681160283e+18,-0.80302353502,-0.012436616875649998,-0.05708116749250001
1.717764681360283e+18,-0.7029098004100001,0.173243933548,0.0693225954675
1.717764681560283e+18,-0.264085248486,-0.063132854842,0.10773005812250003
1.717764681760283e+18,0.31376934349600005,-0.0016772360465499999,0.0757062681985
1.717764681960283e+18,0.7228068649799999,0.023617136064345002,0.04878857354649999
1.717764682160283e+18,0.555044893915,0.03135905332410001,-0.0154876942273
1.717764682360283e+18,0.6939172631190476,-0.05327985897190477,-0.07399731652333333
1.717764682560283e+18,-0.0995145043265,0.0385071814306,0.005253129964250001
1.717764682760283e+18,-0.4603833444450001,0.132926575839,0.04121386113745
1.717764682960283e+18,-0.596827681365,0.1595682889335,-0.04698568331149999
1.717764683160283e+18,-0.43174807280500005,0.16919068831234998,-0.01684769924415
1.717764683360283e+18,-0.113614520415,-0.10861915234724999,-0.026214089349750003
1.717764683560283e+18,0.37039141593599995,-0.3718313420164999,0.1090573623501
1.717764683760283e+18,0.29082074304899996,0.215817456315,-0.00356460465071
1.717764683960283e+18,-0.028019418278809525,0.16987499501457143,-0.04317923790809524
1.717764684160283e+18,-0.022940841830315,-0.14652548023499995,-0.051022029994000004
1.717764684360283e+18,-0.010241590521200002,0.0007004265650000008,0.0026604996991000003
1.717764684560283e+18,0.022399555518100002,0.061111995952499984,0.047094075929
1.717764684760283e+18,0.030995102132,0.0196604095875,0.011286581919655
1.717764684960283e+18,0.034163225909,-0.011122262227349999,0.001898800279073
1.717764685160283e+18,0.0019967028751499993,-0.0299351782653,0.0017039185737099997
1.717764685360283e+18,-0.008591029017014284,0.005597437609728572,0.00011612913408095231
1.717764685560283e+18,-0.026856316533450005,-0.0006219629431998502,8.635209516999994e-05
1.717764685760283e+18,-0.025840954856,0.016974574699,-0.002448356640455
1.717764685960283e+18,-0.037610062398,0.0005909076778049993,-0.0014959012159149999
1.717764686160283e+18,-0.023158537596,0.0035016110394850003,0.0027410216746999996
1.717764686360283e+18,-0.02227790304555,0.005343127576725001,0.003605564159825
1.717764686560283e+18,-0.0233773399596,0.011936887260399997,0.0043214220434500015
1.717764686760283e+18,0.021933530504499997,-0.00258081684588,0.0019843746789925
1.717764686960283e+18,0.03491318846714285,-0.014198321804761903,-0.0014215201040271425
1.717764687160283e+18,0.0343087690895,-0.012431383179300001,0.0035460042883750003
1.717764687360283e+18,0.022933332610699998,-0.01018859103745,0.004782550980065
1.717764687560283e+18,0.005620380479335002,-0.00332780961188,0.00168918436371
1.717764687760283e+18,-0.0154736220141,-0.010026397567899997,-0.0008851562509749999
1.717764687960283e+18,-0.019078706219444998,-0.0042672367420475,-0.004112500505150001
1.717764688160283e+18,-0.015299572354550001,0.01840057643,-0.0035627121340249994
1.717764688360283e+18,-0.015565416243333331,-0.0021273566056666665,0.0003898242443904762
1.717764688560283e+18,-0.01738319082665,-0.0006146921780750001,-0.0009364219266700001
1.717764688760283e+18,-0.013511938950300001,-0.009101970808449999,-0.002700004482210001
1.717764688960283e+18,-0.008369730465950001,0.007199000275945,0.004477145464675
1.717764689160283e+18,0.0271115236925,-0.0061200030728234996,0.0034366523616849998
1.717764689360283e+18,0.027084881020499996,-0.022982855618545,0.005474155023738001
1.717764689560283e+18,0.031975518726,-0.014583399205144999,-0.004537037468995001
1.717764689760283e+18,0.030336850416,0.018205939303150002,0.007924245868634999
1.717764689960283e+18,-0.01247129980052381,-0.012601310364666666,-0.0014742243912857142
1.717764690160283e+18,-0.022728234157150005,0.002908946573255,-0.003407514467970001
1.717764690360283e+18,-0.024456701799999998,0.014468737039749999,-0.002073283807835
1.717764690560283e+18,-0.021673496253499996,0.011581816197950002,-0.00481586839923
1.717764690760283e+18,-0.025653886655449997,0.003369488217770001,-0.00290699898025
1.717764690960283e+18,-0.019923597341,0.0132863413771,0.00067030710632
1.717764691160283e+18,-0.005137385443000002,-0.0005173270589800001,0.001399455638585
1.717764691360283e+18,0.02559805765671429,-0.008819954657809524,0.0028329094693857145
1.717764691560283e+18,0.0324465393085,-0.009027756029500001,0.00114237790697
1.717764691760283e+18,0.0275763597345,-0.01026261234645,0.00487927346245
1.717764691960283e+18,0.016389295822629997,-0.0064597163698,-0.0010462371050145001
1.717764692160283e+18,-0.005808716217299999,-0.0013589994167499996,-0.0012542602548234999
1.717764692360283e+18,-0.017997610476,0.008515482454550001,0.0019718526862549995
1.717764692560283e+18,-0.025349871255,0.005335716402420001,-0.0029680684267024996
1.717764692760283e+18,-0.0142016093945,4.6803592714999943e-05,-0.0013755798804625
1.717764692960283e+18,-0.015248398297619046,0.0030656565157190473,-0.00034670771232714294
1.717764693160283e+18,-0.013415286620250003,0.0026345051708850003,-0.0022153240163345
1.717764693360283e+18,-0.008784446749,-0.0005886619445125,-0.0030145460972500005
1.717764693560283e+18,0.002726839301980001,0.003074548940675,0.0010218955459845001
1.717764693760283e+18,0.026268480904500003,-0.0074014612938500006,0.00225195485406
1.717764693960283e+18,0.030319789564999994,-0.0078015930485,0.00292628305029
1.717764694160283e+18,0.031131053249999995,-0.01131982695105,0.0018726416281515002
1.717764694360283e+18,0.02766482292666667,-0.0034258720420904764,-0.00010776429967619047
1.717764694560283e+18,-0.0014831457493650001,-0.0015003780368245,0.00043889372602999994
1.717764694760283e+18,-0.0265170749975,0.0005595105234699999,-0.001961541036075
1.717764694960283e+18,-0.0322841695515,0.02199989936715,-0.008076751326004999
1.717764695160283e+18,-0.028297773841,0.009823865118115001,0.00063347092356
1.717764695360283e+18,-0.020671384712099998,0.003281316068176,-0.000698498822728
1.717764695560283e+18,-0.011759377817700001,0.0057019463037,-0.0008431039692864999
1.717764695760283e+18,-0.003844769150409524,-0.0008906384907904762,0.0013345444153190476
1.717764695960283e+18,0.01453382642417,-0.006842455699093501,0.0009218818740989998
1.717764696160283e+18,0.03270170968,-0.0096300345377,0.002962341299255
1.717764696360283e+18,0.03457014532699999,-0.00782721267385,0.00399947244437
1.717764696560283e+18,0.025636830925000003,-0.006485616229499999,0.0023450110923049997
1.717764696760283e+18,0.006567937554624999,-0.008568208245055,-0.0008156904311000001
1.717764696960283e+18,-0.017551551899,0.008736291643975002,-0.0015070317661949994
1.717764697160283e+18,-0.021637552277000004,0.008637589053385,0.0007528283516229998
1.717764697360283e+18,-0.028077919700952376,0.001286843791804762,-0.0039123370523238095
1.717764697560283e+18,-0.019348706630949997,0.003395200439355,-0.0032077283191000007
1.717764697760283e+18,-0.011182465986499999,0.007468909863705001,0.0017962605692500005
1.717764697960283e+18,-0.0025123142986550003,0.0024259906959889998,-0.0014174417127049998
1.717764698160283e+18,0.01297200913445,-0.0020705270115,0.00011607311898000011
1.717764698360283e+18,0.028746648738,-0.0036771944721445,0.0030410527250649996
1.717764698560283e+18,0.031901124771500006,-0.007733245706350001,0.0025031256023799998
1.717764698760283e+18,0.02129255126471429,-0.009133345203289999,0.004816292263495238
1.717764698960283e+18,0.01120528700955,-0.014112847973445,0.00037656574862500024
1.717764699160283e+18,-0.013189968815800002,0.010600042633250002,-0.0026074563211200006
1.717764699360283e+18,-0.02425762778,0.01028684442843,-0.0004318485500915001
1.717764699560283e+18,-0.0268701040176,0.0026454790612,-0.0053456195920499995
1.717764699760283e+18,-0.018087485105999994,0.003267786453886,-0.00081952171175
1.717764699960283e+18,-0.018934372579,0.006610363954549998,0.0016662586364049998
1.717764700160283e+18,-0.012002103699655002,0.0051816222023200005,-0.0005965617310955001
1.717764700360283e+18,0.019413638777267143,-0.006369732093095238,0.0014226151286666666
1.717764700560283e+18,0.037558984197999995,-0.009347886451950001,0.0020740065257499997
1.717764700760283e+18,0.030444928351000006,-0.006968296225830001,0.0013189345597486
1.717764700960283e+18,0.026589431381500002,-0.010622596018624999,0.0020384453470200002
1.717764701160283e+18,0.01401013017135,-0.0016149341711104998,-0.0015240814653850001
1.717764701360283e+18,-0.011209612967908247,0.0038829638390999997,-0.0024495765333599996
1.717764701560283e+18,-0.030512921187000004,0.0071003037854,-7.015311859049993e-05
1.717764701760283e+18,-0.025724257696666662,0.0062615724405619055,-0.002929317177287143
1.717764701960283e+18,-0.022519401926,0.008343129185249999,6.499587318000008e-05
1.717764702160283e+18,-0.0242751612326,0.01055141831705,-0.0014709237031899998
1.717764702360283e+18,-0.011419453264695,0.00405843069313,0.00124218889977
1.717764702560283e+18,0.0017714878515199997,-0.0011369472019735001,-0.00015412625510000008
1.717764702760283e+18,0.0252174004915,-0.007564550172750001,0.001141557667872
1.717764702960283e+18,0.026753817126499997,-0.0073050981852,0.0043169927899699995
1.717764703160283e+18,0.0251536871325,-0.007924161758800001,0.0008830068864984998
1.717764703360283e+18,0.023755434279999998,-0.0027054400360190475,0.0022023912807380957
1.717764703560283e+18,-0.0060302262369549995,-0.0010107931215614999,-0.001134442875585
1.717764703760283e+18,-0.024942142469500002,0.0032504851580449994,-0.0023780958261299997
1.717764703960283e+18,-0.0218738918185,0.01284600938595,-8.630112399999929e-06
1.717764704160283e+18,-0.020908337738500003,0.0035952160716200008,-0.001961467985552
1.717764704360283e+18,-0.01783166612696,0.0063192399918599994,-0.00216829774444
1.717764704560283e+18,-0.0064497104557,0.0041318703675975,-0.0017162457224299999
1.717764704760283e+18,-0.0035570994036619057,0.0016716292926242857,-0.0001394231693
1.717764704960283e+18,0.01333757164857,-0.0007810537004205001,-0.00099063186789615
1.717764705160283e+18,0.025481071834399998,-0.002270781528228,0.0018918551853899998
1.717764705360283e+18,0.027095186431500003,-0.01033537215495,0.0027678729383630004
1.717764705560283e+18,0.020348536270500005,-0.007433490757950001,0.001513517671335
1.717764705760283e+18,0.0003159292624950001,-0.0009786944603385002,0.0005340321280149999
1.717764705960283e+18,-0.015009935107450004,0.008127682493199999,-0.0003174233424999999
1.717764706160283e+18,-0.013736823854449997,0.0031592797955499997,-0.000928723893565
1.717764706360283e+18,-0.016741865890999998,0.0023745987119952383,-0.0020603718224428574
1.717764706560283e+18,-0.012414950511059999,-0.0014172029914825,-0.001416064339023
1.717764706760283e+18,-0.007078348356,0.00418594232744,-0.0007455613697845001
1.717764706960283e+18,-0.00512060302425,0.0011963655124349998,0.00020687202344750003
1.717764707160283e+18,-0.0041346316107449994,0.0014217045274679998,-0.0005401287810199999
1.717764707360283e+18,-0.0027544026379755,0.0036206506658099996,-0.0007750192190935
1.717764707560283e+18,0.0056286583012205,-0.0028184518335000004,0.0003106626797826
1.717764707760283e+18,0.02119857143857143,-0.007588355004095236,0.001642842943338095
1.717764707960283e+18,0.02353745289155,-0.007020564610600001,0.0037775968317750007
1.717764708160283e+18,0.024393514264499996,-0.00410629595865,0.001784982322725
1.717764708360283e+18,0.0194826784075,-0.005113763280625,0.0021347775414896
1.717764708560283e+18,0.0072276515779550006,-0.004811185179425,-0.0019463722766900004
1.717764708760283e+18,-0.007460575632650001,0.003946084156570001,-0.0008439148311050002
1.717764708960283e+18,-0.01442014472565,0.004783888719999999,0.0013325416890819998
1.717764709160283e+18,-0.019750712392,0.003919083823115,-0.00026484229600499997
1.717764709360283e+18,-0.015452887086714284,-0.0010564079774857144,-0.001572797817710476
1.717764709560283e+18,-0.011782445758850001,0.004263272136184999,0.00029076889044499997
1.717764709760283e+18,-0.01526445173685,0.0020211353431766007,0.0038700639275149997
1.717764709960283e+18,-0.01671280208975,0.008272593829760002,-0.002555572119495
1.717764710160283e+18,0.00806189761455,-0.004685333103589999,0.00337254499289
1.717764710360283e+18,0.024765110759500004,-0.00422231598063,0.001209259295135
1.717764710560283e+18,0.027739710267500002,-0.00999204550215,0.0018886197125160004
1.717764710760283e+18,0.022831970470571433,-0.008114049388238094,0.0017294792368209525
1.717764710960283e+18,0.010220175836139999,-0.00078947244907,0.00031746113677500013
1.717764711160283e+18,-0.010552744124800003,0.0040014621103699995,-0.00023979987602749993
1.717764711360283e+18,-0.010907290480379998,0.0016437378829655,0.0002438879455869999
1.717764711560283e+18,-0.01157419958042,0.001645895303195,-0.002178964391385
1.717764711760283e+18,-0.007696524966325,0.0026246961440149997,0.0007474051322200002
1.717764711960283e+18,-0.016353129316000005,0.00421797722835,-0.0016264358302495
1.717764712160283e+18,-0.02041147965845,0.002572514594025,3.904788175650005e-05
1.717764712360283e+18,-0.002410899021619048,0.0006504803562380953,0.0021369908381619045
1.717764712560283e+18,0.019205322814500003,-0.006452141085507501,0.0018323114375
1.717764712760283e+18,0.021874802513700005,-0.0022863060001550002,0.0009305668701299998
1.717764712960283e+18,0.025336382817000003,-0.017129827686549998,0.0052110446266855
1.717764713160283e+18,0.01672543427431,-0.001800798334225,-0.0021780212933645
1.717764713360283e+18,-0.014402869575349999,0.004125864675530001,0.001396494090989
1.717764713560283e+18,-0.019206451485750002,-0.00011875089256450024,-0.0016812995775300002
1.717764713760283e+18,-0.01792844469190476,0.011838337893809526,-0.004914049502819047
1.717764713960283e+18,-0.015309655758999998,0.00114510185093,0.000977896095666
1.717764714160283e+18,-0.01634700978105,0.00572598365797,-0.001774258969815
1.717764714360283e+18,-0.010931794763500001,0.0022591405780149998,0.000677508907305
1.717764714560283e+18,0.008387561957660002,0.00029894007616849976,0.00044792104738
1.717764714760283e+18,0.0206090636545,-0.00753631067935,0.0008274255320435001
1.717764714960283e+18,0.023379316274,-0.010556588334099998,0.0026854810885450003
1.717764715160283e+18,0.024975779466,0.00029874827014500006,0.0025957587000399996
1.717764715360283e+18,0.007632408601538094,-0.0032090959471190485,0.0004782632514428572
1.717764715560283e+18,-0.011240071336900002,0.0020541756760755004,-0.0012658935796725
1.717764715760283e+18,-0.0146513893556,-0.0002429969608550001,-0.00130040391232
1.717764715960283e+18,-0.013047455764550001,0.006594032676974999,-0.0016673955019785003
1.717764716160283e+18,-0.0161900379235,0.0025910604744925,-0.0019525871146664996
1.717764716360283e+18,-0.01585727958565,0.0028149189890835,-0.00259769787083
1.717764716560283e+18,-0.011600803973634997,0.005931312998100001,-0.001292437530399
1.717764716760283e+18,0.012386025040190476,0.0027332332963333336,0.002485588614159048
1.717764716960283e+18,0.018030921088499997,-0.005079194821905,0.00119978790175
1.717764717160283e+18,0.020991612084999996,-0.008864614064999998,0.0012140297505450002
1.717764717360283e+18,0.0238727233365,-0.00043689562001,0.001132523105525
1.717764717560283e+18,0.002774072231854999,-0.000552315206785,0.0013796156388615004
1.717764717760283e+18,-0.013515083363196501,0.0025624730625,-0.00053417843884
1.717764717960283e+18,-0.014353380538,0.00458712211106,-0.0015348044864399997
1.717764718160283e+18,-0.015052511215350001,0.0050120122847399995,-0.00149260163887
1.717764718360283e+18,-0.017379635900047617,0.004920210955428571,-0.0038055604257857143
1.717764718560283e+18,-0.013217500992879999,0.000573283503645,-0.00033974367549500004
1.717764718760283e+18,-0.01049091579615,0.008202038949499998,0.0009769133990869998
1.717764718960283e+18,-0.004020895308185,0.000652315781965,0.0001962654525453
1.717764719160283e+18,0.0152814222734,-0.00422208070535,0.0016214592614849997
1.717764719360283e+18,0.024851735494999996,-0.0085611296581,0.001287584356055
1.717764719560283e+18,0.027380751166,-0.004130112123789999,0.0020257453551100002
1.717764719760283e+18,0.01815429378609524,-0.009073957534666667,0.0037696447134523805
1.717764719960283e+18,-0.0037272317336999997,-0.006965257355600001,-0.0048140302592650005
1.717764720160283e+18,-0.0105423201232,-0.002097027108715,-0.0136966249216
1.717764720360283e+18,-0.003554675670015,-0.010555924055545,-0.01040321590835
1.717764720560283e+18,-0.006434196944355,0.013826111098900001,-0.0020885916783549997
1.717764720760283e+18,0.0032289209892455,0.004643442994255,-0.007172372529849999
1.717764720960283e+18,-0.011340667918599999,0.0180629135577,-0.016442070575999997
1.717764721160283e+18,0.014229495295761901,0.0790471302782381,-0.03221876229713191
1.717764721360283e+18,-0.00015490660415000014,-0.009248633379349998,0.00236997058285
1.717764721560283e+18,0.017402467085750002,-0.016194806072415004,0.0244736740355
1.717764721760283e+18,0.00736136297272,0.013550203270450001,-0.016203527326205
1.717764721960283e+18,0.018473903043049997,-0.030756844417670005,0.015408827412745
1.717764722160283e+18,0.007408344879925,-0.055001115960750004,0.007841627893755001
1.717764722360283e+18,-0.005401450311005,0.0037803560026550007,0.004847505455250001
1.717764722560283e+18,-0.012530426192050002,-0.0051312604684999995,0.01338822367837
1.717764722760283e+18,-0.013969613178290477,-0.04058111587438761,0.000438046985838095
1.717764722960283e+18,0.00273516359159,0.0179817401224,-0.0007217672180000001
1.717764723160283e+18,-0.005961848806650001,-0.0007767273699500003,-0.0002561762925250002
1.717764723360283e+18,-0.014105431292900001,0.016576660238379996,-0.0077223001746
1.717764723560283e+18,-0.006699082726850001,-0.0011083953783299998,0.00541239720767
1.717764723760283e+18,-0.002080764295524,0.0119771178698,0.005557368859105001
1.717764723960283e+18,-0.013578364228950002,-0.00154725000038,-0.007184005552234998
1.717764724160283e+18,-5.401442241904795e-05,0.009860634948538097,0.0005564469778095238
1.717764724360283e+18,0.00892412403505,-0.0018297107893,0.010622056771299999
1.717764724560283e+18,0.018031063350049996,-0.024556867825000002,0.008647631387699998
1.717764724760283e+18,0.016263665818,-0.0032807925363549997,-0.0009155488922199999
1.717764724960283e+18,0.010969253880195,0.00999389581855,-0.0010997936944000001
1.717764725160283e+18,-0.0037296616006519006,-0.0028754225575,0.0027229859610950003
1.717764725360283e+18,-0.00838804699035,-0.0009190431208900004,-0.00177732340526
1.717764725560283e+18,-0.01027055810559115,0.006460515468445,0.0022008902742395
1.717764725760283e+18,-0.010077685295714286,0.0011277975558926666,0.0019825326190109523
1.717764725960283e+18,0.0203755432053,-0.006131008156935,-0.004877448105239999
1.717764726160283e+18,-0.0326129039856,0.020643190935049998,-0.0029991129998
1.717764726360283e+18,-0.028114041197650003,-0.005248223174591,0.007211247714929999
1.717764726560283e+18,-0.0058897509214245,0.00666103013841,-0.001767712936245
1.717764726760283e+18,-0.012048240238450001,-0.00547156090603,0.0031974932237
1.717764726960283e+18,-0.000534332497204999,-0.006695723929665,-0.0038716287353074996
1.717764727160283e+18,0.02714034551142857,0.012929018941000006,0.0028115680352380954
1.717764727360283e+18,0.027391784265999995,-0.022233751405099998,0.0037696847342849997
1.717764727560283e+18,0.025658990350199994,-0.0034088602583500008,0.0008447250351755
1.717764727760283e+18,0.004447175120050001,-0.0267220455215,0.004042958886750001
1.717764727960283e+18,-0.007064585609,0.0203208983405,-0.00391699069288
1.717764728160283e+18,-0.0182118634235,0.00581320429952,0.0037410672871750006
1.717764728360283e+18,-0.02162059149665,0.002173012320535,-0.0027252604487825
1.717764728560283e+18,-0.016643530362999998,0.0034833293874,-0.00362337416729
1.717764728760283e+18,-0.016279402322857142,0.007639239963714285,0.0015582812484095238
1.717764728960283e+18,-0.007169084390310001,0.003909905720654999,-0.0026036425611000004
1.717764729160283e+18,-0.00817653708544,-0.0019306950503900002,-0.0006358098064630001
1.717764729360283e+18,0.018066085875100002,-0.00356122300708,0.001370903174455
1.717764729560283e+18,0.0241197874765,-0.005444497894379999,0.00121380420166
1.717764729760283e+18,0.0226401156284,-0.011774985294400001,0.0019343380875049498
1.717764729960283e+18,0.023732940666,-0.0051630224919869995,0.0024002966238200005
1.717764730160283e+18,0.015157912370809521,-0.003529185007871429,-5.2932272704762125e-06
1.717764730360283e+18,-0.011905661458059998,0.003219891118350001,-5.794538886750001e-05
1.717764730560283e+18,-0.014706792589050003,0.003352166619169,-0.0018696087586949999
1.717764730760283e+18,-0.017430860734500002,0.008454865264255,-0.000741128320805
1.717764730960283e+18,-0.019522338175000004,0.003921599430065,-0.001703206641825
1.717764731160283e+18,-0.017745757929349997,-0.001731330424155,-0.001960356207515
1.717764731360283e+18,-0.013012557756000001,0.00736110651619,0.0010219945106430001
1.717764731560283e+18,-0.0113624910818,0.005630467564155001,0.0008765778387899998
1.717764731760283e+18,0.016462337862619046,-0.005231559055561905,0.0007189089056009524
1.717764731960283e+18,0.025695149413500002,-0.007931175873549998,0.00028014264534500003
1.717764732160283e+18,0.028276566881999997,-0.00861322846075,0.0026262016267649996
1.717764732360283e+18,0.022030204720349996,-0.00453362265835,0.0012679484498750002
1.717764732560283e+18,0.00426894159145,-0.006807158573750001,-0.0009386908844349999
1.717764732760283e+18,-0.008579789148600001,0.0038286026565949997,0.0029247394123185005
1.717764732960283e+18,-0.018878930388,0.0008124225654529999,-0.00024263758108499992
1.717764733160283e+18,-0.018115750779666668,-0.00019329219734761895,-0.002935485709161905
1.717764733360283e+18,-0.018159758253,0.007017750408995001,-0.0023525483790950005
1.717764733560283e+18,-0.012488509271949999,0.0034454509148324998,-0.0019036300887984997
1.717764733760283e+18,0.008439083705944999,0.0014260015334550003,0.0012786845676099998
1.717764733960283e+18,0.02473551696175,-0.013013787450699999,0.005295636434909
1.717764734160283e+18,0.027929250152000002,-0.00887236628925,8.426195714749994e-05
1.717764734360283e+18,0.01484013724827,0.0004824037198100001,0.0016053166589760001
1.717764734560283e+18,-0.026774047920349996,-0.0003678966665249996,-0.005935961299534999
1.717764734760283e+18,-0.003671508748047619,0.05693231381285714,0.019151732181742858
1.717764734960283e+18,-0.0276153116024,-0.025660986815050003,0.0141751816968495
1.717764735160283e+18,-0.013865297240200001,-0.0182471811302,-0.008659736847530002
1.717764735360283e+18,-0.0017210822031049997,-0.022486088937500003,-0.00216073233166785
1.717764735560283e+18,0.024479070166000004,0.01596835846975,0.00456104233111
1.717764735760283e+18,0.025512481481000004,-0.01231455549211,0.00099666818282
1.717764735960283e+18,-0.0070174011633,-0.018663559668499998,-0.0068110368912499995
1.717764736160283e+18,-0.01821668383952381,0.0020660106197761905,-0.001334299144938095
1.717764736360283e+18,-0.0204693819395,0.013629561662999997,-0.005567633383780001
1.717764736560283e+18,-0.0249872252355,0.016984593403145003,-0.0023535723797955
1.717764736760283e+18,-0.010114534935595,-0.005579201725908,-0.0013329829555129998
1.717764736960283e+18,0.00698743959283,0.0038030088180500002,0.000723780103655
1.717764737160283e+18,0.025059516262,-0.009415149141000001,0.00416906352615
1.717764737360283e+18,0.02496718964485,-0.015218253689850003,0.00073219651823315
1.717764737560283e+18,0.020749340345499998,0.002741947164215,-0.00377783883588
1.717764737760283e+18,-0.011012911344871429,0.018309395361428574,-0.005171450764228571
1.717764737960283e+18,-0.015348729200349997,0.0007419267902499995,0.00225369699797
1.717764738160283e+18,-0.015323990978750002,-0.009565734793900002,-0.0025946172067599998
1.717764738360283e+18,-0.01650407100035,0.02416020536325,-0.0002086967347100001
1.717764738560283e+18,-0.0158419398938,-0.005258722475195,0.004460385243945
1.717764738760283e+18,0.023753107525500004,-0.012306886049999998,0.0004748067061289999
1.717764738960283e+18,0.032231368496500004,-0.02284500335855,-0.012863862956285
1.717764739160283e+18,0.03074920917952381,-0.004291281913609524,0.014975606152666666
1.717764739360283e+18,-0.00643209404595,-0.033327319379000006,0.005432879645400001
1.717764739560283e+18,-0.008745757612485,0.028313719492719998,-0.0032895921729350006
1.717764739760283e+18,-0.029822889302349997,0.02584287179709,0.00304399167606
1.717764739960283e+18,-0.02468847087515,0.031364529021,-0.019712444069335
1.717764740160283e+18,0.044351431730500004,-0.019129423447850003,-0.006457683725050001
1.717764740360283e+18,0.030038292238499992,-0.00677881374681,-0.0044350534572
1.717764740560283e+18,0.012437492205855005,0.0020906483524500002,0.004584681544945001
1.717764740760283e+18,-0.05573126780238097,0.009363460996995239,0.005689895302019047
1.717764740960283e+18,-0.10975354202450001,0.07299861237300001,-0.016973569034850002
1.717764741160283e+18,-0.02826895947153795,-0.016623493005399996,0.0071912296226000014
1.717764741360283e+18,-0.030881401902500005,-0.07589539501606499,-0.012217252236644997
1.717764741560283e+18,-0.0375267059087,-0.08497168576458,-0.07298317221045
1.717764741760283e+18,0.058953552183549994,0.03847825789327999,-0.012161380797400001
1.717764741960283e+18,-0.084058666235,-0.042529484396399996,-0.036525108266849994
1.717764742160283e+18,0.0767230609690476,-0.00041451268646666706,0.05895954250200001
1.717764742360283e+18,-0.3434942646045,-0.063660063967,-0.065483516085
1.717764742560283e+18,0.229680381067,-0.09568517674299999,-0.11696286164605
1.717764742760283e+18,0.56265311687,0.14125323705450002,0.05236424703615
1.717764742960283e+18,0.7253059536249998,-0.15784117144115,0.021635221411
1.717764743160283e+18,0.3996593654149999,-0.2276365788602,-0.14786074834106502
1.717764743360283e+18,-0.3691542161585001,0.10735266078399999,0.062209075174350016
1.717764743560283e+18,-0.9707226544550001,0.22906940468,0.021901099378500002
1.717764743760283e+18,-0.8442130528571429,0.09885639745761907,-0.1639729563799524
1.717764743960283e+18,-0.11247932556699998,-0.1053436497849,-0.061106617088100015
1.717764744160283e+18,0.518082282705,-0.20209337165449998,-0.004719396932249998
1.717764744360283e+18,0.608711238205,0.2861561435185,0.162570712161
1.717764744560283e+18,0.8011855751300001,-0.1136022944005,0.06484556603225
1.717764744760283e+18,0.34345635361800003,-0.0445043084185,0.013479262657625002
1.717764744960283e+18,-0.36204186305,-0.027744665140750004,-0.0339776271801
1.717764745160283e+18,-0.6429763223380953,-0.10585033721933332,-0.0748202368643857
1.717764745360283e+18,-0.76512479483,0.3338361588064,0.03378979740635
1.717764745560283e+18,-0.48085773961000006,0.0424335572865,-0.00854009371685
1.717764745760283e+18,0.089608577817,0.0542758788965,0.1060710038129
1.717764745960283e+18,0.783088463565,-0.165095805564,-0.030090280813299997
1.717764746160283e+18,0.5449590384949998,0.012361281363500004,0.13220839411565
1.717764746360283e+18,0.7108920604050001,-0.0740229573303,-0.015717635198099995
1.717764746560283e+18,0.10502650668761906,-0.07455547174309525,0.019130720046428573
1.717764746760283e+18,-0.35018555299000004,0.00428291656985,-0.0018409947053999996
1.717764746960283e+18,-0.6386648818799999,-0.035857737481450006,-0.14096866362149998
1.717764747160283e+18,-0.808410403135,0.35446280390000007,0.04672650403895
1.717764747360283e+18,-0.5032842546649999,-0.0785948981864,-0.0495310412934
1.717764747560283e+18,0.09522899630750001,-0.41111439765,-0.051426683737000004
1.717764747760283e+18,0.509508863095,-0.324057221098,-0.05432726238215
1.717764747960283e+18,0.7068795204099999,0.18448100831249997,0.23627894200017
1.717764748160283e+18,0.724121522342857,-0.09206505793590475,0.16345686611857144
1.717764748360283e+18,0.09184403633900003,0.0011412715999830042,-0.05465205660900001
1.717764748560283e+18,-0.40813889504,0.10119457674150001,0.023865642704850004
1.717764748760283e+18,-0.6622388809850001,-0.1975344721285,-0.10852680690300001
1.717764748960283e+18,-0.7119963854550001,0.167409007527,0.0755190160565
1.717764749160283e+18,-0.441288342315,-0.051895919161500007,0.06358943088205002
1.717764749360283e+18,0.038945740783149996,0.077431486032,-0.003996130311614994
1.717764749560283e+18,0.6435109760095239,-0.012712032134285714,-0.1414625979042857
1.717764749760283e+18,0.83659481108,0.022035882308440495,-0.065984063131
1.717764749960283e+18,0.71571775079,-0.14624711676899999,-0.12060762942850001
1.717764750160283e+18,-0.09058792768200001,-0.06639917020764999,0.01724161605595
1.717764750360283e+18,-0.36483532563,0.04115584946411,0.06039400532545001
1.717764750560283e+18,-0.7169282674900002,0.1704114947385,0.042658977726749994
1.717764750760283e+18,-0.75326065719,0.16653655920804997,0.113614486436
1.717764750960283e+18,-0.021702200874999984,0.052788376438849996,0.24485398383735002
1.717764751160283e+18,-0.0845110551501905,-0.08287775062700475,-0.11826727540047621
1.717764751360283e+18,-0.00985398292495,0.002596320006979999,-0.03965444043223001
1.717764751560283e+18,-0.0100286300293,0.10850644716999999,0.051877272625299994
1.717764751760283e+18,0.004759922130849995,0.004878109145749999,0.027157433936249996
1.717764751960283e+18,0.00898359548345,-0.04665983282055,-0.032407781109299996
1.717764752160283e+18,0.03961789373495,-0.010908033581900001,-0.026289293159500005
1.717764752360283e+18,-0.040769989555999996,0.01842543530504,-0.060763921753350006
1.717764752560283e+18,-0.003879253291142858,-0.016212961347957144,0.007996229055433332
1.717764752760283e+18,0.026321327036000004,0.011459737888238999,-0.00932628654288
1.717764752960283e+18,-0.006263509678399999,-0.008037113712199999,-0.01849775721875
1.717764753160283e+18,-0.004609444156019999,-0.0181105068419,0.006368400936455
1.717764753360283e+18,0.050590907874500005,0.01988025256407,0.0075679433762
1.717764753560283e+18,0.0712540417867795,0.086041924305,-0.01345985070895
1.717764753760283e+18,0.06122277795865,0.05626306380771497,0.019389045040575002
1.717764753960283e+18,-0.0020168702810999996,-0.0167725912412,0.00051014309274
1.717764754160283e+18,0.02440170454441428,-0.024817370722600002,0.01882232081370836
1.717764754360283e+18,-0.0007891422778571426,-0.006600359908042859,-0.01474313407885714
1.717764754560283e+18,,,
