Timestamps,Acc_X,Acc_Y,Acc_Z
1.7175892857607148e+18,-0.07810009003800007,1.7099017410550001,9.9189808741
1.7175892859607148e+18,4.803720611505,1.49051795198,11.1121870876
1.7175892861607148e+18,7.461773162899999,0.713364051865,11.123114364850002
1.7175892863607148e+18,1.005212150495,-0.35634896846499997,6.8906283645499995
1.7175892865607148e+18,-2.6469381637000002,2.2015992508549997,6.23726703645
1.7175892867607148e+18,0.79673318477285,6.501302970999999,6.69276981365
1.7175892869607148e+18,1.9291508103299997,2.7248062362064998,8.90067844455
1.7175892871607148e+18,0.163714553835,3.21631663505,9.245374145549999
1.7175892873607148e+18,0.20915256503499996,1.166082618696,9.743635505499999
1.7175892875607148e+18,0.667731445405,-2.0172501067740005,10.360510208500001
1.7175892877607148e+18,0.8155340881619999,1.402792877205,9.270349708599998
1.7175892879607148e+18,1.476162803643,-0.62590093227,10.2001561664
1.7175892881607148e+18,2.49355961605,-0.6534586258249998,10.044105675399999
1.7175892883607148e+18,1.284187019362,1.7030310288600004,8.9992784045
1.7175892885607148e+18,4.751172386150001,2.6256299743044997,7.893767326450001
1.7175892887607148e+18,4.03963453673,3.6991974792449995,8.296632064799999
1.7175892889607148e+18,3.4621354523,1.7367783507649999,9.05363037855
1.7175892891607148e+18,2.3192620695699997,1.4002182312075002,9.46913632995
1.7175892893607148e+18,2.6908194121999998,1.9021918716000001,9.326453041050002
1.7175892895607148e+18,2.23228543855,1.7282760315,9.30589329525
1.7175892897607148e+18,2.2082828522,1.2613220672999998,9.3849738465
1.7175892899607148e+18,1.7075307504736843,0.6965252525578947,9.671088866578947
1.7175892901607148e+18,1.9519034958700001,0.785386779785,9.2366622619
1.7175892903607148e+18,1.088154670635,-0.09107810214999998,9.98494120765
1.7175892905607148e+18,0.485912040665,-0.42873094940465,10.10924272095
1.7175892907607148e+18,1.0761646041315,-0.19532881163,9.138586212049999
1.7175892909607148e+18,1.7944608994249998,-1.1801458739700001,9.775219825799997
1.7175892911607148e+18,1.961056961025,-0.17877323910000006,9.367527626100001
1.7175892913607148e+18,1.5506404266999998,-2.130497108445,9.27831314845
1.7175892915607148e+18,1.3282029875799999,-1.1580218811095002,8.829381706200001
1.7175892917607148e+18,1.7351093215000002,-0.66407904054,8.9028040237
1.7175892919607148e+18,0.5849011918115,-0.47249993133100004,9.091366904600001
1.7175892921607148e+18,-0.4702171783,-2.1471649475,10.653271407650001
1.7175892923607148e+18,-0.27761270141450006,-2.3543790436,9.849016365
1.7175892925607148e+18,0.4242402877335,-2.5983267516500006,9.53353241675
1.7175892927607148e+18,0.3716022491515,-4.31694037635,10.924245415000001
1.7175892929607148e+18,-0.35387910461449995,-3.667283843999999,10.0853673704
1.7175892931607148e+18,-1.0475590896949998,-1.1144250412795,9.114463874799998
1.7175892933607148e+18,-1.4330674209,0.916693725585,8.881144065849998
1.7175892935607148e+18,-0.5320236511259999,0.9030795364849998,8.99647922515
1.7175892937607148e+18,-0.18445392609384997,1.3950988769200001,7.319755989100001
1.7175892939607148e+18,-0.21409229278549996,0.23213726807250007,8.9796018219
1.7175892941607148e+18,-1.306640327415,-0.5818250885259999,9.44151876065
1.7175892943607148e+18,-1.3588899632105265,-2.477718610210526,10.768976850684211
1.7175892945607148e+18,-0.6585255889600001,-3.5062337494500007,12.167013565000001
1.7175892947607148e+18,-1.1238703995550001,-1.498032325685,10.349306008000001
1.7175892949607148e+18,-1.12175978855,-0.174686737065,9.869194404949999
1.7175892951607148e+18,-1.0721753997800003,0.9501940613100001,8.570450157149999
1.7175892953607148e+18,-0.148708259584,2.1290526123499998,6.986930603099999
1.7175892955607148e+18,-0.3580030288635,1.1037447509150002,8.0777796707
1.7175892957607148e+18,-1.378655570985,-0.262823455825,9.48963620045
1.7175892959607148e+18,-2.0611912307100004,-1.70348757925,9.8190786209
1.7175892961607148e+18,-0.33614847564,-3.71996678935,12.301291832
1.7175892963607148e+18,-0.8328381042649999,-2.085882385285,10.798536827500001
1.7175892965607148e+18,-0.76755136877,-0.479303283689,10.076296234599997
1.7175892967607148e+18,-0.9974807282,0.42959165954500006,9.566187011599999
1.7175892969607148e+18,-0.7571779404055,1.9644548950499998,7.020992271300001
1.7175892971607148e+18,0.29942983245250004,2.0540735321,7.920187385550001
1.7175892973607148e+18,-0.5617368621975,1.523022857665,8.5854863891
1.7175892975607148e+18,-1.89862928013,0.019264938349500004,9.358216987550001
1.7175892977607148e+18,-1.7676217117850002,-1.43530526729,10.7756194835
1.7175892979607148e+18,-0.477162734989,-2.9652138060999995,11.944830597000001
1.7175892981607148e+18,-0.819276306185,-1.25142015841,10.239711410399998
1.7175892983607148e+18,-1.1996577988500001,-0.37714821622,10.030611237299999
1.7175892985607148e+18,-1.1255567610947368,0.34107756766315794,9.776004903421054
1.7175892987607148e+18,-1.31442414094,1.32435598756,7.94094172675
1.7175892989607148e+18,0.12417427826300001,1.768370155325,8.3243169938
1.7175892991607148e+18,-0.30817913822245,1.549884498525,8.58505977635
1.7175892993607148e+18,-1.3587769088,1.14961685939,8.37416333765
1.7175892995607148e+18,-2.141259727455,-0.282088394166,9.9235688327
1.7175892997607148e+18,-0.72158196251,-1.0197394409,10.3720512082
1.7175892999607148e+18,-0.009752220143300008,-2.36142938225,11.556298554
1.7175893001607148e+18,0.1492695922965,-1.27111170954,10.593755171949999
1.7175893003607148e+18,-0.2700683898865,0.0014594650214999976,9.88853418655
1.7175893005607148e+18,-0.9221199418050002,0.39573955535999994,9.89498577115
1.7175893007607148e+18,-1.220576797475,0.60625428772,9.70692434705
1.7175893009607148e+18,-1.4676305465000001,1.1667711868550001,8.176424537699997
1.7175893011607148e+18,-0.159927429193,1.9344423065,8.7709731674
1.7175893013607148e+18,0.20059785460763999,1.5137945480999997,9.08689869685
1.7175893015607148e+18,-1.38238282007,1.7712666319999997,8.77205841055
1.7175893017607148e+18,-1.7675618362,1.9764225082500002,8.474918815850002
1.7175893019607148e+18,-2.3021077422499996,1.9913988647100003,8.7463119505
1.7175893021607148e+18,-1.1083476791793998,1.7080081788,9.92736344145
1.7175893023607148e+18,0.26908792876900006,0.7388186188485,10.4832100528
1.7175893025607148e+18,0.436671935996,0.0106877746585,9.963213890000002
1.7175893027607148e+18,0.212393325835,-0.63745690157,10.33641032345
1.7175893029607148e+18,-1.2591500051842106,-1.0089098558473684,9.915483277578948
1.7175893031607148e+18,-1.722408233585,-0.8229436797749999,9.345224006450001
1.7175893033607148e+18,-1.116760185325,-1.3018802261749998,9.743613052399999
1.7175893035607148e+18,-0.7450456695599998,-1.6256344757,9.69295090495
1.7175893037607148e+18,-0.8345894623,-1.3859154739000001,9.505810066250001
1.7175893039607148e+18,-0.44899880219999994,-1.81985559085,9.6233980407
1.7175893041607148e+18,-0.2492915954575,-2.0342697143499997,9.57254878245
1.7175893043607148e+18,-0.09413923645550001,-1.99053067,9.4438389358
1.7175893045607148e+18,0.00041912842394999995,-2.3420222396999995,9.487929748550002
1.7175893047607148e+18,0.08493338012424999,-2.5423955612,9.3489138337
1.7175893049607148e+18,0.04208498383575,-2.5387132188,9.4248808594
1.7175893051607148e+18,0.052263816837199994,-2.6085055845999996,9.3965223312
1.7175893053607148e+18,0.09848769377950001,-2.6087076645500002,9.414844230700002
1.7175893055607148e+18,0.09404942322649999,-2.62551022335,9.3998978119
1.7175893057607148e+18,0.149808471685,-2.6663378219499996,9.40863963305
1.7175893059607148e+18,0.1321676559425,-2.69183729565,9.3759251632
1.7175893061607148e+18,0.277096275325,-2.7239081039499995,9.37035674295
1.7175893063607148e+18,0.34030982208,-2.7253151779500002,9.348015701399998
1.7175893065607148e+18,0.5593044204750001,-2.8513830185,9.306836334200002
1.7175893067607148e+18,0.5822666702350001,-2.8712092895500003,9.295265396100001
1.7175893069607148e+18,0.7337591400199999,-2.93298582465,9.26407775125
1.7175893071607148e+18,0.7323717619105264,-2.9817756814210523,9.253339161157893
1.7175893073607148e+18,0.79640386963,-3.0399758377,9.248300559849998
1.7175893075607148e+18,0.8314010925249999,-3.01211876685,9.186621322650002
1.7175893077607148e+18,0.846744186395,-3.0696291732499996,9.201193519550003
1.7175893079607148e+18,0.8150775375349999,-3.0626461944499996,9.168621253949999
1.7175893081607148e+18,0.73857911682,-2.98332614135,9.28902337645
1.7175893083607148e+18,0.679504463195,-2.9144468766,9.271270294149998
1.7175893085607148e+18,0.6026991806,-2.8962821503000002,9.300669158900002
1.7175893087607148e+18,0.5600229263400001,-2.8940068816,9.288170150800001
1.7175893089607148e+18,0.5608836364750001,-2.8960201950499997,9.298087028500001
1.7175893091607148e+18,0.563009216315,-2.8917166443,9.29650781245
1.7175893093607148e+18,0.54970188904,-2.8768226166999993,9.2961261063
1.7175893095607148e+18,0.5631813583299999,-2.8838954087,9.286905281150002
1.7175893097607148e+18,0.58639059448,-2.8876451111499994,9.291785133450002
1.7175893099607148e+18,0.59805134583,-2.8661498108,9.295280364949999
1.7175893101607148e+18,0.5971382446300001,-2.8914322356999995,9.28621671285
1.7175893103607148e+18,0.5753061447050001,-2.88739812455,9.29439720145
1.7175893105607148e+18,0.61455452728,-2.8962522125999994,9.288828781049999
1.7175893107607148e+18,0.594937820435,-2.8884459456500005,9.2831331254
1.7175893109607148e+18,0.5829178161599999,-2.8751835250999997,9.295706978
1.7175893111607148e+18,0.5582790527299999,-2.87625379955,9.287354347249998
1.7175893113607148e+18,0.5390212048947368,-2.851451954,9.307802220368421
1.7175893115607148e+18,0.5363945617700001,-2.8346328506,9.309171478200001
1.7175893117607148e+18,0.5188959503199999,-2.82098123935,9.30832573695
1.7175893119607148e+18,0.50278944396,-2.8432174987999996,9.324492118750001
1.7175893121607148e+18,0.48669042205499996,-2.8199858093,9.327455955449999
1.7175893123607148e+18,0.5041441268849999,-2.8482395554,9.304927802949999
1.7175893125607148e+18,0.5148842926,-2.87020637515,9.3004072036
1.7175893127607148e+18,0.5447771301200001,-2.8670180053000003,9.3018217621
1.7175893129607148e+18,0.5634358291550001,-2.9098963393000004,9.271195449850001
1.7175893131607148e+18,0.57384667969,-2.9277467194,9.275266983
1.7175893133607148e+18,0.58808956145,-2.8999944305999996,9.301103256300001
1.7175893135607148e+18,0.60129959107,-2.873260025,9.277250358600002
1.7175893137607148e+18,0.603717063915,-2.8516823958999997,9.299651275600002
1.7175893139607148e+18,0.54735177612,-2.8332332611999997,9.30483050535
1.7175893141607148e+18,0.49350125885,-2.8685747679999993,9.310077095
1.7175893143607148e+18,0.42592428589,-2.8457173005,9.29685958095
1.7175893145607148e+18,0.36031571961000003,-2.8241546403,9.34342774195
1.7175893147607148e+18,0.1824181594835,-2.7962152404500005,9.30422426605
1.7175893149607148e+18,0.16760646057900003,-2.7850110397,9.33440151205
1.7175893151607148e+18,0.38316570282000006,-2.7999948806000003,9.350410720849998
1.7175893153607148e+18,0.40912172698499993,-2.8082951202,9.329559081949999
1.7175893155607148e+18,0.38750667571999997,-2.81922988125,9.326280899199999
1.7175893157607148e+18,0.3909869384789474,-2.8136594911578947,9.315562398894738
1.7175893159607148e+18,0.37970789338500005,-2.83380956275,9.3203232878
1.7175893161607148e+18,0.384325790415,-2.8257937316499997,9.31309332275
1.7175893163607148e+18,0.41057370757500006,-2.8680658264499996,9.303640480100002
1.7175893165607148e+18,0.44708278656000006,-2.88313948065,9.294397201550002
1.7175893167607148e+18,0.460203002935,-2.90899820715,9.2883348083
1.7175893169607148e+18,0.48898065947999997,-2.93507398235,9.279398391800001
1.7175893171607148e+18,0.5240452423099999,-2.94600874335,9.28277387235
1.7175893173607148e+18,0.5232818298299999,-2.89811583705,9.283881568750001
1.7175893175607148e+18,0.53328103639,-2.9412561264,9.278387992899999
1.7175893177607148e+18,0.508470130925,-2.9283529586999997,9.282130211
1.7175893179607148e+18,0.4972883834700001,-2.92681864935,9.2832902985
1.7175893181607148e+18,0.49038773345999986,-2.9170739136000003,9.283454956100002
1.7175893183607148e+18,0.47434110260500006,-2.904275528,9.291777649
1.7175893185607148e+18,0.442247840885,-2.8773764648499998,9.29816187295
1.7175893187607148e+18,0.431747177115,-2.8787386322,9.29998807515
1.7175893189607148e+18,0.43531725311,-2.8631635209,9.31135693355
1.7175893191607148e+18,0.43425446320499994,-2.828802475,9.316431381250002
1.7175893193607148e+18,0.39219193268,-2.82221617125,9.308767318750002
1.7175893195607148e+18,0.39599402619,-2.82070431535,9.323586501999998
1.7175893197607148e+18,0.390927062995,-2.8119999161000004,9.322209365800001
1.7175893199607148e+18,0.4017724047105263,-2.8258236694736842,9.326418770210529
1.7175893201607148e+18,0.41264689635499996,-2.8317812806000004,9.324686714150001
1.7175893203607148e+18,0.41775876618499996,-2.8412041855,9.2959913864
1.7175893205607148e+18,0.4205205230700001,-2.8657007446,9.304433830299999
1.7175893207607148e+18,0.44084076690999996,-2.8731253052500003,9.304658363299996
1.7175893209607148e+18,0.45869863128500005,-2.8953465958,9.2991123962
1.7175893211607148e+18,0.46126579285,-2.89093077855,9.288723999099998
1.7175893213607148e+18,0.46590614318500007,-2.9013266602,9.2921818085
1.7175893215607148e+18,0.45138633727499994,-2.9036692885499997,9.297899917650001
1.7175893217607148e+18,0.44027194976500006,-2.8915445021999995,9.29386580665
1.7175893219607148e+18,0.45114683533000005,-2.8925848387500004,9.3049053497
1.7175893221607148e+18,0.43926155089999996,-2.8873457336999997,9.29807954405
1.7175893223607148e+18,0.416725913995,-2.8767627410500003,9.29757808685
1.7175893225607148e+18,0.42253383635999997,-2.87031864155,9.30269744105
1.7175893227607148e+18,0.41683069611,-2.8678862,9.30956066885
1.7175893229607148e+18,0.41320074462,-2.8460466155999997,9.314455490050001
1.7175893231607148e+18,0.390545356755,-2.8477680359000006,9.30042217245
1.7175893233607148e+18,0.39056032563000004,-2.8506794813999994,9.31752410885
1.7175893235607148e+18,0.38886135863999993,-2.8333230742999995,9.317329513599999
1.7175893237607148e+18,0.392004821785,-2.8347376328,9.3172471848
1.7175893239607148e+18,0.39560483552500003,-2.82744030765,9.313272949249999
1.7175893241607148e+18,0.39770047759,-2.8447069014500004,9.314066299550001
1.7175893243607148e+18,0.39961373580526316,-2.8563286550526317,9.311142642421053
1.7175893245607148e+18,0.418095565785,-2.8783943481999996,9.327785270750002
1.7175893247607148e+18,0.44900628662,-2.8173438034000005,9.315652999900001
1.7175893249607148e+18,0.48771578979,-2.7842476272999996,9.306581863349999
1.7175893251607148e+18,0.48826215362500003,-2.8316989518,9.30100595845
1.7175893253607148e+18,0.4733756103399999,-2.8477755203,9.3177785797
1.7175893255607148e+18,0.4677847366300001,-2.8434644851999997,9.3384954986
1.7175893257607148e+18,0.479041328425,-2.7346707229500002,9.312764007450001
1.7175893259607148e+18,0.4777240676899999,-2.7454183731999993,9.344932113750001
1.7175893261607148e+18,0.48835196686,-2.6965749436,9.357004508949998
1.7175893263607148e+18,0.5087021484450001,-2.6053546371000005,9.35902530665
1.7175893265607148e+18,0.49091912842,-2.65469203955,9.36312677755
1.7175893267607148e+18,0.475231750495,-2.66640518195,9.3756557236
1.7175893269607148e+18,0.47687832641000005,-2.6492059478499996,9.3526485672
1.7175893271607148e+18,0.43928400421999997,-2.6817033691,9.38181541445
1.7175893273607148e+18,0.46064458466499997,-2.6710230788499993,9.36557418835
1.7175893275607148e+18,0.48701225282999994,-2.7063271636,9.340418998699999
1.7175893277607148e+18,0.47756689453000006,-2.7161018372,9.33526222235
1.7175893279607148e+18,0.5752911758350001,-2.7440861434999997,9.33710339365
1.7175893281607148e+18,0.5159171447750002,-2.7758875121999997,9.323451782249998
1.7175893283607148e+18,0.5526732101449998,-2.7835291213,9.318893760799998
1.7175893285607148e+18,0.5562275294263158,-2.779688030157895,9.327167213842106
1.7175893287607148e+18,0.5437442779499999,-2.79061688245,9.32085468295
1.7175893289607148e+18,0.54239707946,-2.78275074,9.324050537100002
1.7175893291607148e+18,0.5200111312950001,-2.77566297925,9.3178160019
1.7175893293607148e+18,0.5214705963099999,-2.79596825415,9.3353520355
1.7175893295607148e+18,0.51806517792,-2.7657086792999994,9.32322724905
1.7175893297607148e+18,0.47733487701,-2.7642117919499993,9.3324705276
1.7175893299607148e+18,0.4828209686199999,-2.769825119,9.32738859545
1.7175893301607148e+18,0.470082458495,-2.7640621033,9.334147041300001
1.7175893303607148e+18,0.4519177322399999,-2.7617269591999998,9.35053795625
1.7175893305607148e+18,0.44991190338500003,-2.74613687885,9.326288383500001
1.7175893307607148e+18,0.4452790374699999,-2.7399697036,9.34487223825
1.7175893309607148e+18,0.44274929809,-2.7573036575,9.3513163377
1.7175893311607148e+18,0.491525367735,-2.73989485935,9.33193164825
1.7175893313607148e+18,0.4840035095200001,-2.7489136048000002,9.340665984999998
1.7175893315607148e+18,0.52092423248,-2.75654024505,9.32603391255
1.7175893317607148e+18,0.557770111085,-2.8031982193000005,9.330502121
1.7175893319607148e+18,0.576862907405,-2.8031158905500004,9.316184394750001
1.7175893321607148e+18,0.564790512095,-2.780363205,9.31018187715
1.7175893323607148e+18,0.562036239625,-2.8091034393000003,9.3133627624
1.7175893325607148e+18,0.525347534175,-2.8128456574,9.322344085649998
1.7175893327607148e+18,0.53768188477,-2.81601905815,9.313445091199998
1.7175893329607148e+18,0.5132432315210526,-2.8256345889473686,9.315759357736843
1.7175893331607148e+18,0.5157749404849999,-2.7942992247,9.31597483065
1.7175893333607148e+18,0.5077665939450001,-2.82455879985,9.314081268250002
1.7175893335607148e+18,0.5039794692999999,-2.8244764709999997,9.31913326255
1.7175893337607148e+18,0.48362180328000004,-2.8094477234,9.321064247
1.7175893339607148e+18,0.49597112274000005,-2.80061608895,9.3100621262
1.7175893341607148e+18,0.46928910828000003,-2.79547428135,9.330906280499999
1.7175893343607148e+18,0.449620010365,-2.7684255294999995,9.335636444099999
1.7175893345607148e+18,0.44475512695499997,-2.77135942855,9.330936218300002
1.7175893347607148e+18,0.441461975095,-2.7672205352999995,9.33530712895
1.7175893349607148e+18,0.43521995545500003,-2.75820178975,9.346758316200003
1.7175893351607148e+18,0.40899449158499995,-2.74520132445,9.336414825399999
1.7175893353607148e+18,0.42206231689500007,-2.7329717560500004,9.348532127499999
1.7175893355607148e+18,0.4798945541300001,-2.72806196605,9.33895953355
1.7175893357607148e+18,0.45342210389500004,-2.7521768189499998,9.3398277283
1.7175893359607148e+18,0.480291229255,-2.7689718932,9.34456537625
1.7175893361607148e+18,0.500214797975,-2.7786866913,9.3187515564
1.7175893363607148e+18,0.5031262435799999,-2.79896202855,9.3189087296
1.7175893365607148e+18,0.53140992737,-2.7995757523500004,9.32794992835
1.7175893367607148e+18,0.52548973846,-2.8009528885,9.30960557555
1.7175893369607148e+18,0.5280494155950002,-2.8121795424999996,9.31193323535
1.7175893371607148e+18,0.5082168418526315,-2.7995651164736843,9.325103085263157
1.7175893373607148e+18,0.49998278045000005,-2.8073820189500003,9.31907338715
1.7175893375607148e+18,0.49395032500999997,-2.8017911453999997,9.3257345352
1.7175893377607148e+18,0.49314200592000007,-2.78468172455,9.3356214753
1.7175893379607148e+18,0.489257583615,-2.776022232,9.33122811125
1.7175893381607148e+18,0.4464990005450001,-2.7009308853,9.3503957519
1.7175893383607148e+18,0.46392276763,-2.6747353592500005,9.3581795654
1.7175893385607148e+18,0.48301556396,-2.64746207425,9.384232887349999
1.7175893387607148e+18,0.5142256622349999,-2.48342568965,9.35458703605
1.7175893389607148e+18,0.4722454605050001,-2.5994868394499995,9.375580879300001
1.7175893391607148e+18,0.4566329269450001,-2.7464661942,9.469862319749998
1.7175893393607148e+18,0.41549098205,-2.4714056854499997,9.3558519059
1.7175893395607148e+18,0.43444157408999995,-2.41363332355,9.384502327049997
1.7175893397607148e+18,0.40771465300999993,-2.4601416093000004,9.3690095442
1.7175893399607148e+18,0.370554428115,-2.6506429597500003,9.430583999700001
1.7175893401607148e+18,0.399174911505,-2.71048102565,9.4015593567
1.7175893403607148e+18,0.468765197755,-2.4971371766499995,9.330726654
1.7175893405607148e+18,0.47008994293000006,-2.5876539459,9.390422515850002
1.7175893407607148e+18,0.5208044815050001,-2.62108692165,9.3853630371
1.7175893409607148e+18,0.500319580075,-2.6850489119499996,9.391350585949997
1.7175893411607148e+18,-0.031719039906,-2.5187148056999997,9.5077859574
1.7175893413607148e+18,-0.9623188475964998,-2.8117080230000004,9.094487914999998
1.7175893415607148e+18,-0.7256121344684211,-3.3791204513684208,9.334517717842106
1.7175893417607148e+18,-0.608956169135,-3.0852866135,9.8632517625
1.7175893419607148e+18,0.18047969055325003,-2.0510273666999996,9.869695862150001
1.7175893421607148e+18,-0.4328324203335,-0.9601034545750002,9.433517898549999
1.7175893423607148e+18,-0.600655929535,-0.7297100601200001,10.340407011399998
1.7175893425607148e+18,-0.7887697448750001,0.18472336574999998,9.8938406528
1.7175893427607148e+18,-1.177256881745,-0.9911638641,9.811451980049998
1.7175893429607148e+18,-0.8259823607950001,-0.3805686035175,9.88290589155
1.7175893431607148e+18,-0.48716194153220005,-1.6816929016100002,9.485587120100002
1.7175893433607148e+18,-0.39309754943700004,0.27258316035999997,8.1110704421
1.7175893435607148e+18,1.0028246155349998,-1.0414966964374999,8.088669525099998
1.7175893437607148e+18,-0.6600673828099999,-0.8105344849249999,8.758803473800002
1.7175893439607148e+18,-1.8721044388349999,-1.90557483675,8.99170415495
1.7175893441607148e+18,-1.5170278244459998,-2.8596608047000003,9.615651649000002
1.7175893443607148e+18,-0.15727793882149999,-5.0101488417999995,11.7110242995
1.7175893445607148e+18,-0.218096466057,-4.0907981416,10.275681610300001
1.7175893447607148e+18,-0.7405550078950001,-1.22889949046,9.63063549055
1.7175893449607148e+18,-1.27972629545,-0.552568428035,9.44383893585
1.7175893451607148e+18,-0.98210021203,0.8088879089350002,8.059966712899998
1.7175893453607148e+18,0.10463990020944999,0.7050638122610501,8.137819816649998
1.7175893455607148e+18,-0.5618117065175001,0.5004992065125,8.7453539427
1.7175893457607148e+18,-0.7450716681342106,-0.3184982059115789,9.312804974894735
1.7175893459607148e+18,-1.6760870589499999,-1.8426382141800002,9.816039939949999
1.7175893461607148e+18,-1.1800036697250003,-3.830826255899999,11.184389442499999
1.7175893463607148e+18,-1.0570343856700002,-3.1350431441499995,10.8273668744
1.7175893465607148e+18,-1.08207730867,-1.1692934418049998,9.9277152102
1.7175893467607148e+18,-1.398519264215,-0.11293265533700003,9.85558021585
1.7175893469607148e+18,-0.8864640883855,1.5156506881299998,8.1764020844
1.7175893471607148e+18,0.48263385767700007,0.29910800168949997,8.4042358017
1.7175893473607148e+18,0.08515042877199996,0.9191486206380001,8.20690864565
1.7175893475607148e+18,-0.7675289153974999,0.0447269897225,9.16190771505
1.7175893477607148e+18,-1.7593738632999998,-1.8799780655,9.74030493175
1.7175893479607148e+18,-1.2135638808999998,-2.99891622155,10.596419630999998
1.7175893481607148e+18,-1.3191019134600002,-3.4800457076499995,11.021206284
1.7175893483607148e+18,-1.4573843536500002,-1.63142742918,10.02799168395
1.7175893485607148e+18,-1.6388819275000004,-0.17426760864450003,9.915889800699999
1.7175893487607148e+18,-1.5756309586000001,0.733774108845,9.437095458549999
1.7175893489607148e+18,-0.9274413757375001,1.87643792725,7.9012293090500005
1.7175893491607148e+18,0.14590908051650003,1.4995816039679999,8.80856748975
1.7175893493607148e+18,-0.800460433986,1.7817149048099998,7.990428817850001
1.7175893495607148e+18,-1.1991563415900002,0.643736343388,9.189368110500002
1.7175893497607148e+18,-1.558326942345,-0.814867973315,9.4225756528
1.7175893499607148e+18,-0.8766519927728501,-2.86704045875,10.566781265749999
1.7175893501607148e+18,-0.14368541516105263,-3.790094773157895,11.717680326842105
1.7175893503607148e+18,-0.6606736220335,-1.53532727056,9.976087120299997
1.7175893505607148e+18,-0.9641899566449998,0.05123096465350001,9.56884398655
1.7175893507607148e+18,-1.2749138031,1.22577848048,9.82162332895
1.7175893509607148e+18,-1.51169890605,1.2557686157950003,9.63020887765
1.7175893511607148e+18,-1.4738052062300002,1.6591497803,8.545122825650001
1.7175893513607148e+18,-0.38038149261500004,2.0445757827,8.5275568543
1.7175893515607148e+18,-0.14394067383625,2.0266804962499996,9.4329790191
1.7175893517607148e+18,-0.38330042266139996,1.8213749313,8.9420374374
1.7175893519607148e+18,-1.62621077728,1.8808387756499996,8.77031453705
1.7175893521607148e+18,-2.2889800415500003,2.9569659576,8.4399814682
1.7175893523607148e+18,-2.035182815595,3.7714597091999993,8.147676818800003
1.7175893525607148e+18,-1.3395419082300002,4.0147113648,8.765090400900002
1.7175893527607148e+18,-0.3015254745575,2.43412570947,10.433752899400002
1.7175893529607148e+18,-0.8374185791100001,0.8605230331549999,10.0062868194
1.7175893531607148e+18,-0.8119490432500001,0.33870066833,9.84370989975
1.7175893533607148e+18,-0.8159681853999998,-0.25633444976150005,10.0175284426
1.7175893535607148e+18,-1.454001388655,-0.9393042068399999,9.6940062103
1.7175893537607148e+18,-1.213429161085,-0.9296492842600002,9.77019776925
1.7175893539607148e+18,-1.5533722457699999,-0.84014291388,9.5022175366
1.7175893541607148e+18,-0.9037905578599998,-0.8625962219350001,9.8794480818
1.7175893543607148e+18,0.0946111498526316,-0.5684310993421053,9.620344390789473
1.7175893545607148e+18,0.5747747497190001,-0.452673660285,9.8048581926
1.7175893547607148e+18,0.7403604126275001,0.15291451264875,9.582652770499998
1.7175893549607148e+18,-0.3351305923395,0.09518705747949996,9.5522360229
1.7175893551607148e+18,-0.645233230595,-0.8944799194549999,9.792920516950002
1.7175893553607148e+18,-0.37220848846,-0.819575683605,9.69595216385
1.7175893555607148e+18,-0.19910096740400002,-1.04988674924,9.739990585350002
1.7175893557607148e+18,-0.24102877807499995,-1.1088042296449998,9.669771606500001
1.7175893559607148e+18,-0.280411880502,-1.0137593765549997,9.674591583199998
1.7175893561607148e+18,-0.260742782589,-1.092398345975,9.680826118599999
1.7175893563607148e+18,-0.327227027888,-1.0344463578299998,9.683101386999999
1.7175893565607148e+18,-0.0814231796105,-1.1164009322950001,9.6641058883
1.7175893567607148e+18,0.12055929564949996,-1.02528540811,9.748507873649999
1.7175893569607148e+18,0.0818273391755,-0.5241275711,9.625216758799999
1.7175893571607148e+18,0.16609460448975,-0.616665138255,9.7414201129
1.7175893573607148e+18,0.536417015092,-1.137701637235,9.7744189908
1.7175893575607148e+18,0.17363891603300002,-0.86109185028,9.52264256295
1.7175893577607148e+18,-0.1769245834325,-0.957446479775,9.69967941285
1.7175893579607148e+18,-0.21594094848399997,-0.8775351562650002,9.65070126345
1.7175893581607148e+18,-0.061252624506,-1.1715462569950001,9.6914091112
1.7175893583607148e+18,-0.04023632812225,-0.8928782501049998,9.77197158045
1.7175893585607148e+18,-0.301106346134,-0.8153843993550002,9.706595031749998
1.7175893587607148e+18,0.10092958952600001,-0.4642713847842105,9.56756729926316
1.7175893589607148e+18,-0.12278965759350002,-0.9256750488050001,9.7628705063
1.7175893591607148e+18,0.24661965179500003,-0.8144712982349999,9.67557952885
1.7175893593607148e+18,0.354896987915,-0.8321719894399999,9.714274063200001
1.7175893595607148e+18,0.32918046570000004,-0.9017098846149999,9.7321543809
1.7175893597607148e+18,0.37614530181500005,-0.896545623805,9.6726905365
1.7175893599607148e+18,0.38303098296000004,-1.06475083916,9.690121787950002
1.7175893601607148e+18,0.42415047454500004,-1.000803817725,9.689313468950001
1.7175893603607148e+18,0.43857298278500007,-1.12926667795,9.62270198825
1.7175893605607148e+18,0.4616100769000001,-1.1984902267,9.643336578349999
1.7175893607607148e+18,0.444904815675,-1.2840223617500002,9.64734075165
1.7175893609607148e+18,0.42804238128500005,-1.2777803421,9.6299693756
1.7175893611607148e+18,0.38516404724000003,-1.2191173325,9.64440685275
1.7175893613607148e+18,0.37992494201500004,-1.1496542816499997,9.639699142550002
1.7175893615607148e+18,0.34985996246499995,-1.1501332855,9.709484024099996
1.7175893617607148e+18,0.32463741303,-1.0915675734999999,9.67825895685
1.7175893619607148e+18,0.33599130249,-1.0943742370999998,9.6682522659
1.7175893621607148e+18,0.340466995235,-1.0744581528,9.6784460678
1.7175893623607148e+18,0.33629816436999993,-1.09007068635,9.67718868255
1.7175893625607148e+18,0.356902816765,-1.1130404204000002,9.67399282835
1.7175893627607148e+18,0.371617218015,-1.1548035737000002,9.666568267749998
1.7175893629607148e+18,0.37404847797894736,-1.1652557855789472,9.649754285315788
1.7175893631607148e+18,0.42424777221999993,-1.2443473662,9.625942749
1.7175893633607148e+18,0.39059774781000006,-1.28248056795,9.666553298849998
1.7175893635607148e+18,0.41576790618000004,-1.3158761214499999,9.636570648200001
1.7175893637607148e+18,0.43629771423,-1.32926577755,9.630231330849998
1.7175893639607148e+18,0.433161735545,-1.3821882247,9.62312860105
1.7175893641607148e+18,0.40697369385000004,-1.3647719421,9.63654819485
1.7175893643607148e+18,0.42412802123999993,-1.36001932515,9.6322371597
1.7175893645607148e+18,0.42052800751,-1.36091745765,9.640559852649996
1.7175893647607148e+18,0.407490119935,-1.3113106154499998,9.627050445600002
1.7175893649607148e+18,0.367867515565,-1.2552372208,9.639294982950002
1.7175893651607148e+18,0.29982650756499996,-1.2177476806,9.685211997999998
1.7175893653607148e+18,0.267089584345,-0.9622140655100001,9.64248335265
1.7175893655607148e+18,0.09496252441674999,-0.8696315918000002,9.68867729175
1.7175893657607148e+18,0.21534967804500002,-0.937949523935,9.7150000533
1.7175893659607148e+18,0.16349750518100004,-0.96067975614,9.731480781550001
1.7175893661607148e+18,0.1733096008285,-0.8450676727349998,9.641225967450001
1.7175893663607148e+18,0.18903440094,-0.9777517546900001,9.681888908400001
1.7175893665607148e+18,0.24509282684350003,-1.0928099900000003,9.6978382417
1.7175893667607148e+18,0.25313859557999996,-1.0924881592000002,9.68709807585
1.7175893669607148e+18,0.27000102996500003,-1.1907662888,9.6273423386
1.7175893671607148e+18,0.30728849029999994,-1.2210707702999999,9.65592539975
1.7175893673607148e+18,0.31859274613684213,-1.230118271631579,9.627820948578949
1.7175893675607148e+18,0.35107244109999997,-1.2612098008,9.667421493549998
1.7175893677607148e+18,0.347202987685,-1.2125684509499999,9.66349964905
1.7175893679607148e+18,0.35415602876,-1.2253069611499998,9.641472953850002
1.7175893681607148e+18,0.36899766541,-1.2106449508500001,9.6510754852
1.7175893683607148e+18,0.340332275405,-1.1882664871500002,9.656890891999998
1.7175893685607148e+18,0.31705567933,-1.16991464995,9.647737426750002
1.7175893687607148e+18,0.31583571625499995,-1.1581491165500002,9.677884735149998
1.7175893689607148e+18,0.323267761225,-1.1514056396999999,9.666658081049999
1.7175893691607148e+18,0.303291801445,-1.1321706390500001,9.673349166849999
1.7175893693607148e+18,0.31115794372499994,-1.1371627578499999,9.678535881
1.7175893695607148e+18,0.331074028025,-1.13562844845,9.6565316391
1.7175893697607148e+18,0.331493156435,-1.1750040665,9.676245643600002
1.7175893699607148e+18,0.35022669983000004,-1.21734352115,9.6500950241
1.7175893701607148e+18,0.35365457153,-1.2409045258,9.6464575883
1.7175893703607148e+18,0.35855687713499995,-1.2646152192,9.646248023999998
1.7175893705607148e+18,0.37246295929500006,-1.3120665436500003,9.625965202249997
1.7175893707607148e+18,0.365869171155,-1.3448633423500003,9.651621849049999
1.7175893709607148e+18,0.36761304474,-1.3629607085499997,9.629363136349998
1.7175893711607148e+18,0.360218421935,-1.3900468825999996,9.625209274249997
1.7175893713607148e+18,0.38927300262500003,-1.40502323915,9.62474523915
1.7175893715607148e+18,0.377420413368421,-1.4434089419999998,9.627340369052632
1.7175893717607148e+18,0.37034486390000004,-1.4656471710999999,9.616055808999999
1.7175893719607148e+18,0.357988059995,-1.4379173355500001,9.615442085099998
1.7175893721607148e+18,0.35943255614999997,-1.4654825135499998,9.617006332399999
1.7175893723607148e+18,0.32966695404999996,-1.44037971495,9.63090493005
1.7175893725607148e+18,0.32897090148999997,-1.3955180053,9.63388373565
1.7175893727607148e+18,0.31766191863,-1.37049005135,9.6307477569
1.7175893729607148e+18,0.29719947051500006,-1.3258229370499999,9.63159349815
1.7175893731607148e+18,0.30691426849000003,-1.2921729127,9.654024353
1.7175893733607148e+18,0.25123006438999995,-1.304537201,9.719775123800002
1.7175893735607148e+18,0.11913725281045,-0.984323089595,9.612530639749998
1.7175893737607148e+18,0.1188827819835,-1.0625578994249998,9.661269287100001
1.7175893739607148e+18,0.144771446218,-1.0107581177549998,9.684081848099998
1.7175893741607148e+18,0.1415082321135,-1.0501561889099997,9.69777836615
1.7175893743607148e+18,0.12257260894000002,-1.0053468704,9.658327903700002
1.7175893745607148e+18,0.203067718505,-1.116393448,9.70768027495
1.7175893747607148e+18,0.23741379547000002,-1.13081595615,9.643261733900001
1.7175893749607148e+18,0.21744532014000004,-1.1977792054,9.672376190149999
1.7175893751607148e+18,0.24918681335,-1.2206740952000001,9.66032624815
1.7175893753607148e+18,0.23433020782000002,-1.2753778381499998,9.65967510215
1.7175893755607148e+18,0.24851321410499994,-1.2903541947,9.6332924652
1.7175893757607148e+18,0.28473946018947366,-1.3248791102631579,9.63063352073684
1.7175893759607148e+18,0.2662288742,-1.3645698622499998,9.6383070373
1.7175893761607148e+18,0.270045936585,-1.328517334,9.64779730235
1.7175893763607148e+18,0.264215560905,-1.3524226226500002,9.628839225749998
1.7175893765607148e+18,0.25463548279000003,-1.32413145445,9.649151985200001
1.7175893767607148e+18,0.25381219483,-1.29139453125,9.639077934400001
1.7175893769607148e+18,0.21165985108,-1.33585956565,9.634594757050001
1.7175893771607148e+18,0.251222579955,-1.2133543166499998,9.6646522522
1.7175893773607148e+18,0.28306885528750003,-1.2883034592000002,9.63770079795
1.7175893775607148e+18,0.23829695893115002,-1.2231813812500003,9.644863403250001
1.7175893777607148e+18,0.233349746705,-1.172856033285,9.681507202099999
1.7175893779607148e+18,0.24699387358999997,-1.22723046115,9.6687986298
1.7175893781607148e+18,0.26852659606999996,-1.22266495525,9.6591062852
1.7175893783607148e+18,0.345451629635,-1.1753857729000001,9.65114284515
1.7175893785607148e+18,0.286676353465,-1.2391007766,9.654001899750002
1.7175893787607148e+18,0.2800077209399999,-1.2949271852,9.638441757250003
1.7175893789607148e+18,0.28726013947,-1.3098810883,9.6600193862
1.7175893791607148e+18,0.28354785919000003,-1.34109118655,9.638172317549998
1.7175893793607148e+18,0.2838622055,-1.3612093506,9.635709938
1.7175893795607148e+18,0.28627219391500003,-1.3864618379000002,9.630695366
1.7175893797607148e+18,0.27687174226,-1.3786855086999998,9.634055877649999
1.7175893799607148e+18,0.27317443084500004,-1.3981824646,9.61988784035
1.7175893801607148e+18,0.2568500880105263,-1.3829189421052628,9.632800068157895
1.7175893803607148e+18,0.28253746032000004,-1.38962775425,9.646060913100001
1.7175893805607148e+18,0.25118515778000006,-1.3621972961,9.62852487945
1.7175893807607148e+18,0.26750871277500005,-1.3469365312,9.637311607349998
1.7175893809607148e+18,0.264088325505,-1.36260894015,9.657848899850002
1.7175893811607148e+18,0.23613395690699995,-1.2910203096,9.71627989195
1.7175893813607148e+18,0.11698173523500002,-0.9919721831699999,9.576088920550001
1.7175893815607148e+18,0.07182064819414999,-1.101461998,9.666792800950002
1.7175893817607148e+18,0.10338999939000001,-1.15457155605,9.74600807185
1.7175893819607148e+18,0.13272150421049997,-0.9654024352849998,9.584920555150001
1.7175893821607148e+18,0.1531016235325,-1.148254692075,9.70049521635
1.7175893823607148e+18,0.18066680145000003,-1.1963945846500001,9.6870606537
1.7175893825607148e+18,0.20247644805,-1.2290641479500002,9.650214774999998
1.7175893827607148e+18,0.180704223635,-1.2712913360500002,9.652018524350002
1.7175893829607148e+18,0.21186193085,-1.30681246955,9.65143473815
1.7175893831607148e+18,0.198105537415,-1.357302475,9.6602514037
1.7175893833607148e+18,0.18205890655499998,-1.31842082985,9.6117298051
1.7175893835607148e+18,0.19630927277500002,-1.3587020646,9.626960632300001
1.7175893837607148e+18,0.2297572174,-1.359293335,9.6189747391
1.7175893839607148e+18,0.22924827576,-1.40708894355,9.661920432850001
1.7175893841607148e+18,0.22623204801999997,-1.3324840851500002,9.6302762376
1.7175893843607148e+18,0.22519486276842107,-1.3364681685263158,9.63406060473684
1.7175893845607148e+18,0.23058050537000002,-1.3064906388000002,9.64206422415
1.7175893847607148e+18,0.21598585509,-1.2948149185499997,9.636914932349999
1.7175893849607148e+18,0.213411209105,-1.2882660369499999,9.653380691550002
1.7175893851607148e+18,0.19498452758,-1.2690909118499998,9.6723237991
1.7175893853607148e+18,0.18829344177000001,-1.28299699405,9.656082572899999
1.7175893855607148e+18,0.19760408020500003,-1.2822934570000002,9.656651390150001
1.7175893857607148e+18,0.20916753388000003,-1.29765900425,9.6396018448
1.7175893859607148e+18,0.21457129669999997,-1.3436508636,9.636533226000001
1.7175893861607148e+18,0.232968040475,-1.37180731215,9.650618934499999
1.7175893863607148e+18,0.23672522735,-1.4182931442,9.6200824357
1.7175893865607148e+18,0.25846751405499996,-1.4304328995,9.623802200350001
1.7175893867607148e+18,0.24799678802499997,-1.4295422515000002,9.623285774200003
1.7175893869607148e+18,0.23864872742000004,-1.4716347199,9.61458885955
1.7175893871607148e+18,0.238993011475,-1.46865591435,9.62764171605
1.7175893873607148e+18,0.234854118345,-1.4500496062500001,9.620501564049999
1.7175893875607148e+18,0.251858757025,-1.4529835053,9.6173955231
1.7175893877607148e+18,0.219743041985,-1.4168636169500002,9.623338165299998
1.7175893879607148e+18,0.23909779356999997,-1.3949417037500003,9.64217649075
1.7175893881607148e+18,0.223372993465,-1.3947920150999997,9.627177681000003
1.7175893883607148e+18,0.23305036925999997,-1.37120855705,9.648201461800001
1.7175893885607148e+18,0.18403479766500003,-1.3452824708000002,9.6542488861
1.7175893887607148e+18,0.13511376631478952,-1.352153970842105,9.746744697789474
1.7175893889607148e+18,0.09587562561209999,-1.0011331328950002,9.534295829849999
1.7175893891607148e+18,0.04705464934899999,-1.1215352555,9.687457328749998
1.7175893893607148e+18,0.05371579742395001,-1.1476259995,9.66117947385
1.7175893895607148e+18,0.0481324081405,-1.18227893835,9.685908050399998
1.7175893897607148e+18,0.08566685485745,-1.1581566009500002,9.67989056405
1.7175893899607148e+18,0.03228037262095,-1.1180400238050001,9.6204042662
1.7175893901607148e+18,0.14041550446200005,-1.32610734565,9.68242778775
1.7175893903607148e+18,0.11680959319600001,-1.3177322617,9.615030441300002
1.7175893905607148e+18,0.12747491454797,-1.4338607711499998,9.631151916499999
1.7175893907607148e+18,0.1226324844395,-1.4990427245,9.6506339035
1.7175893909607148e+18,0.08896749115550001,-1.5450645217,9.586237815850001
1.7175893911607148e+18,0.0834439773535,-1.5865507508000003,9.611116081300002
1.7175893913607148e+18,0.102634071357,-1.58661062615,9.6065730286
1.7175893915607148e+18,0.09519454192599999,-1.5692392501499999,9.603182579000002
1.7175893917607148e+18,0.08640781402900002,-1.55976395415,9.619236694349999
1.7175893919607148e+18,0.085689308162,-1.5440391540499998,9.601326438849998
1.7175893921607148e+18,0.0730705490115,-1.5168706511499999,9.59919337455
1.7175893923607148e+18,0.073332504267,-1.50791178125,9.633442153850002
1.7175893925607148e+18,0.07010671234100001,-1.4870526580999999,9.60331729885
1.7175893927607148e+18,0.030813423157600002,-1.4869927825500002,9.63780558015
1.7175893929607148e+18,0.030512863962042107,-1.474292088526316,9.622290344105261
1.7175893931607148e+18,0.0029114456178500002,-1.4795008621,9.61059965515
1.7175893933607148e+18,-0.005942642212600002,-1.50536707305,9.6546455611
1.7175893935607148e+18,-0.00838256835885,-1.47836322785,9.624385986350001
1.7175893937607148e+18,-0.004116439819100001,-1.53261790465,9.6082420578
1.7175893939607148e+18,-0.0209639053339,-1.5835195541000002,9.617852073749999
1.7175893941607148e+18,0.034869987488499996,-1.61683277885,9.59340042115
1.7175893943607148e+18,0.02530487823554,-1.6565451966000002,9.5978611451
1.7175893945607148e+18,0.065047233585,-1.6474965134999997,9.591731391950002
1.7175893947607148e+18,0.0511336669915,-1.70027675635,9.5874802322
1.7175893949607148e+18,0.06337071990950001,-1.7023873672,9.58656713105
1.7175893951607148e+18,0.08781488800400002,-1.6985628204499998,9.579599121049998
1.7175893953607148e+18,0.0868793335005,-1.7240099030499998,9.56947267915
1.7175893955607148e+18,0.09423653411749999,-1.74090975945,9.57986107635
1.7175893957607148e+18,0.098629898074,-1.72562654115,9.58128311935
1.7175893959607148e+18,0.0888252868695,-1.7077162856499999,9.56761653895
1.7175893961607148e+18,0.07005432128700001,-1.7070202331000002,9.6247377548
1.7175893963607148e+18,0.083743354795,-1.5704517288050002,9.693033233699998
1.7175893965607148e+18,-0.05490582275375,-1.242191848745,9.501132293649999
1.7175893967607148e+18,-0.09467063140995,-1.4684164125499999,9.731608017
1.7175893969607148e+18,0.036194732662000004,-1.2070599060249998,9.5759167785
1.7175893971607148e+18,-0.05385642603910527,-1.2780895673684212,9.627458544263158
1.7175893973607148e+18,0.023531066894999998,-1.3463826827999998,9.673281806999999
1.7175893975607148e+18,0.0457373886123,-1.3216316527999998,9.6480293197
1.7175893977607148e+18,0.047668373107800005,-1.34770742805,9.637700798000001
1.7175893979607148e+18,0.0656534729031,-1.3661341094499997,9.6318928757
1.7175893981607148e+18,0.089468948355,-1.4431190185499998,9.63717688745
1.7175893983607148e+18,0.1145118713395,-1.5504009248,9.606849952599998
1.7175893985607148e+18,0.1113309860215,-1.62100909425,9.6136982116
1.7175893987607148e+18,0.1089509353635,-1.6545318832500002,9.594732650749998
1.7175893989607148e+18,0.1480271759,-1.7087341689,9.58241326905
1.7175893991607148e+18,0.12592563628550002,-1.7222660293999996,9.58490558635
1.7175893993607148e+18,0.134068702696,-1.7235982590000003,9.57759329225
1.7175893995607148e+18,0.13451028442499996,-1.7336049498000001,9.570168731749998
1.7175893997607148e+18,0.123545585628,-1.74630603805,9.589321403549999
1.7175893999607148e+18,0.12487033081500001,-1.69998486335,9.5855342788
1.7175894001607148e+18,0.12109817504250002,-1.7097595367999996,9.58099871055
1.7175894003607148e+18,0.112715606688,-1.7026792602499998,9.587338028000001
1.7175894005607148e+18,0.10933264160350001,-1.6755182419,9.5975393143
1.7175894007607148e+18,0.1105526046785,-1.66057182325,9.577144226000001
1.7175894009607148e+18,0.09068142700000001,-1.63418918615,9.602089851399999
1.7175894011607148e+18,0.10365195464250002,-1.6080984420500002,9.5966711197
1.7175894013607148e+18,0.102282302864,-1.6065491637999998,9.606513153049999
1.7175894015607148e+18,0.09270458823631579,-1.594043065105263,9.619682609315786
1.7175894017607148e+18,0.088660629274,-1.58474700165,9.593250732399998
1.7175894019607148e+18,0.0857791214,-1.58188794705,9.613556007349999
1.7175894021607148e+18,0.09389225006100001,-1.56771242525,9.61037512205
1.7175894023607148e+18,0.093525512694,-1.57869957735,9.607546005349999
1.7175894025607148e+18,0.0917217636095,-1.58147630315,9.608234573299999
1.7175894027607148e+18,0.09753717041700001,-1.61987146,9.5971576081
1.7175894029607148e+18,0.094423645014,-1.63618753045,9.60509859475
1.7175894031607148e+18,0.10226733397950001,-1.6706832962,9.6006678085
1.7175894033607148e+18,0.10782826996099999,-1.7769024124999997,9.647423080549999
1.7175894035607148e+18,0.08688681793349999,-1.4479464798000001,9.745940712000001
1.7175894037607148e+18,-0.15264507293750001,-1.2744946748,9.69943991085
1.7175894039607148e+18,0.2053504714935,-0.770402938805,9.7829662175
1.7175894041607148e+18,0.7625517653949999,0.044869194030900006,9.396634597750001
1.7175894043607148e+18,0.7580161971295001,0.13303585052650002,9.756007278650001
1.7175894045607148e+18,1.3052482223750002,0.2547627181983,9.549870941300002
1.7175894047607148e+18,-0.062487556417000004,-0.039907012933999994,9.89229137455
1.7175894049607148e+18,-0.7561600570549999,-0.4571718063315,9.8407984543
1.7175894051607148e+18,-0.275576934807,0.28498487091464997,10.06192611725
1.7175894053607148e+18,0.15938854980389497,0.8033419418700001,9.64330664005
1.7175894055607148e+18,-0.2393073577875,1.3545781402999997,9.15559833535
1.7175894057607148e+18,-0.48939545480526314,1.1406674435421051,10.182913995263158
1.7175894059607148e+18,-0.386398979185,1.7370552749050003,9.4799887621
1.7175894061607148e+18,-0.004034111026299993,2.49515380095,9.200497467049999
1.7175894063607148e+18,-0.29591214751999995,2.1152138899499997,10.702863282250002
1.7175894065607148e+18,0.2558329925725,2.28298500824,9.9006889119
1.7175894067607148e+18,-0.1874701537995,0.1491273880022,9.7845154962
1.7175894069607148e+18,-0.3193833389255,-1.763452880855,9.809318916650001
1.7175894071607148e+18,0.23962918853200002,-0.22177132412499997,8.1489342042
1.7175894073607148e+18,0.85020199584,-2.0319794769499997,8.73337136085
1.7175894075607148e+18,0.3573369140320001,-1.03134780124465,7.9634923325
1.7175894077607148e+18,0.7115004272800002,-1.5903079375434999,9.35968393695
1.7175894079607148e+18,-1.20493432605,-1.9292406235999997,9.6400658801
1.7175894081607148e+18,-0.6896234207370001,-2.03470381155,10.077127007
1.7175894083607148e+18,-0.5633085937469999,-3.29893732445,11.404963257000002
1.7175894085607148e+18,-0.9903854827949999,-4.581941802899999,10.44698538135
1.7175894087607148e+18,-0.6394477615349999,-1.6885411606699996,9.5091930308
1.7175894089607148e+18,-0.6130277023199999,0.19345021819725,8.827248642
1.7175894091607148e+18,0.6793772277430001,0.17509089660695004,8.53781801605
1.7175894093607148e+18,0.9814266129049998,-0.36007621771449994,8.95122084045
1.7175894095607148e+18,0.40029009247499997,-0.12427906032000002,7.9738208540999995
1.7175894097607148e+18,-0.23137385554700002,-1.5039300613,9.5591142195
1.7175894099607148e+18,-1.6540367288421052,-2.3285025908947374,9.683505152578947
1.7175894101607148e+18,-1.7958305511500001,-2.9077857283999995,10.42209214825
1.7175894103607148e+18,-1.447115707425,-3.3166455002999995,10.984787016999999
1.7175894105607148e+18,-1.6204627303000003,-2.1347557525999994,10.151477393499999
1.7175894107607148e+18,-0.8714278564550002,-1.013534843465,9.9550259174
1.7175894109607148e+18,-0.194236083989,0.31055170443964,9.19505628205
1.7175894111607148e+18,0.42670266718770006,1.5174469528350003,7.81429758455
1.7175894113607148e+18,0.9519529037049999,0.26568251037049995,9.13212714405
1.7175894115607148e+18,0.3557427292284999,0.5403912506064998,7.75963126355
1.7175894117607148e+18,-1.9072887725299996,-1.1660002899,9.758956146100001
1.7175894119607148e+18,-1.8107395477499995,-2.13542186735,10.16091526775
1.7175894121607148e+18,-1.0384056244499997,-3.3582140579499997,11.183685905499999
1.7175894123607148e+18,-1.1666813735300001,-2.0522024231200002,10.693028732650001
1.7175894125607148e+18,-1.0300455093299998,-0.31277458188100005,9.75615696745
1.7175894127607148e+18,-0.8565038909750001,0.34707575225105,10.04483915005
1.7175894129607148e+18,-0.4079766082855,1.3816194077749997,8.220118675250001
1.7175894131607148e+18,0.41384440614199997,0.973335937545,8.76218643955
1.7175894133607148e+18,1.04353246301,-0.16268918609049998,9.034103485099997
1.7175894135607148e+18,-0.3764746169865,1.61657082382,8.367389924000001
1.7175894137607148e+18,-2.1334235229000003,-0.2650463333145,9.4161091006
1.7175894139607148e+18,-1.7231791306500004,-1.160850997965,9.903794952100002
1.7175894141607148e+18,-1.2501927108750002,-1.82110549163,10.69428611805
1.7175894143607148e+18,-0.6667450753789472,-2.6202459074210527,11.220973759473685
1.7175894145607148e+18,-1.053531669645,-0.13022170252,10.235280624550002
1.7175894147607148e+18,-1.2500430221899999,1.0668913879750002,9.605338096799999
1.7175894149607148e+18,-0.471474563575,1.081029487485,10.1182988897
1.7175894151607148e+18,-0.054801040642,1.9653230896049998,7.420503982500001
1.7175894153607148e+18,0.7324718170050001,1.0439366225665,9.330689231900001
1.7175894155607148e+18,1.031729507475,1.074128837655,9.582735099850002
1.7175894157607148e+18,0.6005586318965002,1.34338890844,8.556521621649997
1.7175894159607148e+18,-0.8557030563940001,1.214858688343,8.79540985095
1.7175894161607148e+18,-2.36586016845,0.86815715788,9.2812320785
1.7175894163607148e+18,-2.12661268605,0.009557624818895,9.5593387525
1.7175894165607148e+18,-1.4129866792,-0.924006019615,10.318859321599998
1.7175894167607148e+18,-0.9102271727649999,-1.8115553512400002,11.228570069500003
1.7175894169607148e+18,-0.8279732208199999,-1.56554193879,10.627480041499998
1.7175894171607148e+18,-0.5368585967949999,0.8199349365699999,9.898638175950001
1.7175894173607148e+18,-0.7187603302,1.01203047177,9.7477968524
1.7175894175607148e+18,-0.610991935715,0.7907231826800001,9.79446979535
1.7175894177607148e+18,-0.143820922854,1.50707352454,8.462554527199998
1.7175894179607148e+18,0.94285931387,1.1534414061829998,8.82348397085
1.7175894181607148e+18,1.43184745795,0.97429394538,9.5805346754
1.7175894183607148e+18,1.2951891403000002,0.22344783783,9.568649391000001
1.7175894185607148e+18,0.9976359316894737,0.2750490851168421,9.646216904473683
1.7175894187607148e+18,0.5187163238660001,0.48300059510400006,9.788048149249999
1.7175894189607148e+18,0.6641089783,0.3827465744051,9.6712984315
1.7175894191607148e+18,0.4006792831525,0.207835304273395,9.76394078065
1.7175894193607148e+18,0.7259304199250001,-0.5175786895589999,9.740065429549997
1.7175894195607148e+18,0.713199394235,-0.2837200012135,9.675467262199998
1.7175894197607148e+18,0.634777473455,-0.23674768065500001,9.705869041400002
1.7175894199607148e+18,0.55874308777,-0.26909541321150005,9.68544401545
1.7175894201607148e+18,0.8172031173749998,-0.764557594255,9.7043721543
1.7175894203607148e+18,0.41644898987,-0.12735516357246504,9.860467551750002
1.7175894205607148e+18,0.8126900024100001,-1.27253375239,9.6986016542
1.7175894207607148e+18,0.9858873366900001,-1.57568334969,9.380176322950003
1.7175894209607148e+18,0.7298971710039999,-0.34926869202400007,9.7770160904
1.7175894211607148e+18,1.12883258066,0.018703605655000014,9.600084021950002
1.7175894213607148e+18,1.4495107270000003,-0.249531097413,9.69250932335
1.7175894215607148e+18,1.51079328925,-0.019923568727500004,9.5398717347
1.7175894217607148e+18,1.544839988715,-0.2300042037965,9.632094955099998
1.7175894219607148e+18,1.49583938595,-0.418806587225,9.695248626749999
1.7175894221607148e+18,1.3678106232125,0.1577344894585,10.42187509875
1.7175894223607148e+18,-0.461340637231,1.836486007545,9.5085044636
1.7175894225607148e+18,-2.52929031365,4.198835975500001,7.903332435550001
1.7175894227607148e+18,-0.6467655703789473,5.232928595263158,7.510938817157895
1.7175894229607148e+18,-0.136381393431,6.130082427900001,7.0079169617
1.7175894231607148e+18,0.16331787872849998,4.620052551300001,8.34953954325
1.7175894233607148e+18,-1.92781858061,1.8064285126200006,6.061951606750001
1.7175894235607148e+18,1.9313886565450002,1.3537398833350003,11.6943265226
1.7175894237607148e+18,2.74556806175,0.694391006445,11.933663819199998
1.7175894239607148e+18,0.3032992858235001,0.787108200075,9.2993219603
1.7175894241607148e+18,-0.6747967529300001,1.67851201629,9.560760795449998
1.7175894243607148e+18,-1.1622131653149999,2.0061282349,9.410518226499999
1.7175894245607148e+18,-1.3105247497499999,1.87515808865,9.54002142335
1.7175894247607148e+18,-1.08004902654,2.0675230637499995,9.34330050665
1.7175894249607148e+18,-1.2255165252,2.0464618606000005,9.4861334838
1.7175894251607148e+18,-1.2593087538999999,2.0702548828499996,9.3626103516
1.7175894253607148e+18,-1.7512158279499999,2.17398916625,9.308041328449999
1.7175894255607148e+18,,,
