Timestamps,Gyro_X,Gyro_Y,Gyro_Z
1.7175892857607148e+18,-0.368421483605,-1.5558628140380002,-0.12151663244705002
1.7175892859607148e+18,0.569343961845,-1.4706591829100002,-0.347431177595
1.7175892861607148e+18,-0.04732774634500007,0.3843007952,-2.1003352702499996
1.7175892863607148e+18,0.041387318204999995,2.2023116111499994,-0.9853424276999997
1.7175892865607148e+18,-0.01948858574299999,0.3202734147445,1.05523824545
1.7175892867607148e+18,0.29553312966199996,-0.3050459431193,1.60631621488
1.7175892869607148e+18,-1.16001980008,-0.094875688102,0.7013301651305
1.7175892871607148e+18,-0.332236333636,0.2184390680925,0.043087453770000006
1.7175892873607148e+18,-0.7837570793905,0.7197957207399999,-0.40221272521428597
1.7175892875607148e+18,-0.5284222278375,-0.675911567395,0.46092243417850004
1.7175892877607148e+18,0.05975609976630001,-0.545185587787,0.5291332834542501
1.7175892879607148e+18,-0.055344250426,0.32880535777199993,-1.5879882179172502
1.7175892881607148e+18,0.9247509777349998,-0.436282471955,0.14057624705999996
1.7175892883607148e+18,1.099221092445,-0.31009990108249996,-0.208358995578
1.7175892885607148e+18,-0.288667812032,-0.360305170223,1.0205305183288498
1.7175892887607148e+18,-0.3919494906589999,0.14545767967099998,-0.217413708516
1.7175892889607148e+18,-0.32250374444350005,0.304033797706,-0.22120152878900004
1.7175892891607148e+18,-0.022512678438000013,0.1186776668775,-0.64104414428
1.7175892893607148e+18,-0.0653575166195,0.1566641040538,0.06026854774799999
1.7175892895607148e+18,-0.19632282032799997,0.00434928737686,-0.0012876734013999983
1.7175892897607148e+18,-0.184358052155,0.13448975793899998,0.005439012835755001
1.7175892899607148e+18,-0.08217385244752633,0.09422204036026316,0.07121180385768422
1.7175892901607148e+18,-0.2457639258435,0.356098417935,0.10901944730549999
1.7175892903607148e+18,-0.191603937745,0.14272696049150002,0.030270518780500005
1.7175892905607148e+18,-0.1620066461212,-0.21366591509950003,-0.14931762520599998
1.7175892907607148e+18,-0.07954953897575,-0.081919717172495,-0.21571187101365
1.7175892909607148e+18,-0.06441876320445002,-0.042883607562299995,0.18482416339595004
1.7175892911607148e+18,-0.11090184829104999,0.03766804832614999,0.446990661412
1.7175892913607148e+18,-0.10729788890935002,-0.11702489517699999,0.0052006252697
1.7175892915607148e+18,0.190947108709,-0.029137773973700005,0.09364300184224998
1.7175892917607148e+18,-0.0244741576274,0.15368044264550001,0.124570191278
1.7175892919607148e+18,-0.114738156924,0.9750945754665,-0.03674756978299999
1.7175892921607148e+18,-0.310372553309,0.11780434997749996,-0.5252703055650001
1.7175892923607148e+18,-0.1425957882285,-0.169512086729,-0.16900753160440002
1.7175892925607148e+18,-0.43911148756499996,-0.23029210697549996,-0.24070390863000002
1.7175892927607148e+18,-0.008379410027,0.325665966048,-0.08927141396155
1.7175892929607148e+18,0.5682243019650001,0.425638009605,0.05392206008835
1.7175892931607148e+18,1.08616849181,0.25565805639399997,0.09023134843294998
1.7175892933607148e+18,0.14616403453605,-0.18797135707149998,0.26051342337499994
1.7175892935607148e+18,0.18664060570000002,-0.686325038985,0.10534123121055002
1.7175892937607148e+18,-0.180986848628,0.09801150744195,0.00726007090295
1.7175892939607148e+18,-0.40248505771500004,0.5285300530550001,0.23815126438300002
1.7175892941607148e+18,-0.454406669725,0.24275177942095,-0.178714983915
1.7175892943607148e+18,-0.5012834770157895,-0.21425909824,-0.2918416944000001
1.7175892945607148e+18,0.30236950684700004,0.028839301996650007,-0.08457381343525
1.7175892947607148e+18,0.616989988095,0.11202608700800001,0.011757193411499996
1.7175892949607148e+18,0.41248696596000006,0.06455955342705001,0.0452921641531
1.7175892951607148e+18,0.30476230234,-0.39849972408650003,0.35576598272000004
1.7175892953607148e+18,0.024854956378499996,-0.20326868287000002,0.07291999301149998
1.7175892955607148e+18,-0.40121430308500006,0.45008112304000003,0.22751118429250003
1.7175892957607148e+18,-0.595138688385,0.5171456670538,-0.15873595047655004
1.7175892959607148e+18,-0.52683633268,-0.2920166492449999,-0.25091820247999996
1.7175892961607148e+18,-0.016685462274499997,-0.2866249646387001,-0.2686772330389
1.7175892963607148e+18,0.6695473402700001,0.08999695339845,-0.030183979688999996
1.7175892965607148e+18,0.566209308795,0.2078335472854,-0.142233569909
1.7175892967607148e+18,0.33656915202000004,-0.058653614112600005,0.201766907275
1.7175892969607148e+18,0.30924372763795,-0.6767519554165,0.364766637042
1.7175892971607148e+18,-0.087420095135,0.18724156628150002,0.0242492651416
1.7175892973607148e+18,-0.44811470286000005,0.93553040775,0.10502514564660001
1.7175892975607148e+18,-0.5910016983649999,0.16712013306100001,-0.183907267078
1.7175892977607148e+18,-0.4613105364150001,-0.603028902415,-0.182132955448
1.7175892979607148e+18,0.18676689603049998,-0.07253296384499999,-0.1229267628875
1.7175892981607148e+18,0.300670936705,0.11952390028350002,0.029459252064150003
1.7175892983607148e+18,0.40941105186,0.203743221975,-0.014423085418499997
1.7175892985607148e+18,0.2666776674315789,0.09578480395421053,-0.002391825311842105
1.7175892987607148e+18,0.28171363249500003,-0.6149051612125,0.27512010709499995
1.7175892989607148e+18,0.006608028918089999,-0.178379476544,0.11465334537010001
1.7175892991607148e+18,-0.192086170057,0.67588844746,0.0799190784345
1.7175892993607148e+18,-0.34072852693,0.4474989334175,0.019845023101000017
1.7175892995607148e+18,-0.34379890635500004,-0.31150914473550007,-0.1149771809098
1.7175892997607148e+18,-0.360402561725,-0.589441113923,-0.13780538988649998
1.7175892999607148e+18,-0.11082044018119999,-0.12651421604949997,-0.1021430728865
1.7175893001607148e+18,0.563774634895,0.11915665305124998,-0.0618548170675
1.7175893003607148e+18,0.2921865079525,0.27324910442700007,-0.1786987841125
1.7175893005607148e+18,0.05695137344645,0.211179133035,0.07820416352849999
1.7175893007607148e+18,0.16113393716600005,0.2077224410975,0.12698056665000002
1.7175893009607148e+18,0.305347451565,-0.44360167687549995,0.300689201055
1.7175893011607148e+18,0.026868245670450003,-0.345580393631,0.131413909796
1.7175893013607148e+18,0.12207287427825,0.36125419959499994,-0.17637624516199998
1.7175893015607148e+18,0.031663910296000006,0.7738321885449999,-0.0512385699925
1.7175893017607148e+18,0.04227596828,0.12374240570300002,-0.02591085290215
1.7175893019607148e+18,-0.0867323179725,-0.4234825887214999,-0.01921574490283
1.7175893021607148e+18,-0.251969815229,-0.7487431775645,-0.0069733024480000076
1.7175893023607148e+18,-0.42772395835499993,-0.25194497592299997,-0.030740024618
1.7175893025607148e+18,-0.2182953618555,-0.025402374148909994,-0.005479261932999993
1.7175893027607148e+18,-0.43963708132,0.72512721123,0.138214411599
1.7175893029607148e+18,-0.09434748040709999,0.17213881207105264,0.1877449480273684
1.7175893031607148e+18,-0.06039339778219999,-0.025496154646000004,0.1721961151335
1.7175893033607148e+18,-0.148472561314,-0.1579915304739,-0.10570738381100002
1.7175893035607148e+18,-0.05696848991810001,-0.059062773510769995,-0.0952758388595
1.7175893037607148e+18,-0.047038132461295,-0.119416267977,-0.090273894841
1.7175893039607148e+18,-0.15888634883000002,-0.1012739729155,-0.07678079098525001
1.7175893041607148e+18,-0.027683497173715,-0.10989738944650003,-0.014483196894299999
1.7175893043607148e+18,-0.11832905727750001,-0.06440897006600001,-0.01549466251704
1.7175893045607148e+18,-0.16095610931999998,-0.035639896989000004,-0.019032178498984996
1.7175893047607148e+18,-0.016610809950700002,-0.0008717780694499997,-0.019645749667194998
1.7175893049607148e+18,-0.01536870831605,0.003424493037799999,-0.022156700096
1.7175893051607148e+18,-0.01205241457884,0.010239621513555,-0.016702414472349998
1.7175893053607148e+18,-0.007448839163746999,-0.00830189361531,-0.021713119651849997
1.7175893055607148e+18,0.001748848263585,-0.0219744056454,-0.007079358084199999
1.7175893057607148e+18,-0.032807970256875,-0.002856099617400001,0.042343095899199996
1.7175893059607148e+18,-0.014054011950299997,-0.0464145629665,-0.019503967080215002
1.7175893061607148e+18,-0.02415606505225,-0.047963356225500006,-0.009051706805707
1.7175893063607148e+18,-0.01703090006385,-0.089435465825,-0.037500493158530004
1.7175893065607148e+18,-0.047645760887,-0.0400381190705,-0.006377071510099999
1.7175893067607148e+18,-0.027916110819350005,-0.055620139465500006,0.0023655613302500005
1.7175893069607148e+18,-0.028935394994499996,-0.025923758745499997,-0.00829481398725
1.7175893071607148e+18,-0.02128535126842105,-0.023819303188947368,-0.00404589848668421
1.7175893073607148e+18,-0.02178479870795,-0.026359784417499997,-0.0051943854368049994
1.7175893075607148e+18,-0.008604692225315002,-0.009389584325355,-0.009567637881670001
1.7175893077607148e+18,-0.0074747849146,0.004666534724135,-4.8473596600002085e-06
1.7175893079607148e+18,0.0266870687948,0.030806152566329997,-0.003077545930685
1.7175893081607148e+18,0.0433132812385,0.04139609569750001,0.00814827031005
1.7175893083607148e+18,0.016512182994935003,0.037606459203499996,0.0017156063117600006
1.7175893085607148e+18,0.010063934861549998,0.032143446709,-0.0015728439788749993
1.7175893087607148e+18,0.0009043080498975,0.00577175394864,0.0012539749968600003
1.7175893089607148e+18,0.0023753951187700005,0.0007413781539899999,-0.00466603299176
1.7175893091607148e+18,0.0006698873010549999,0.004232838737925,-0.0023941203723649995
1.7175893093607148e+18,-3.8337172050000056e-05,-0.0020098782930154995,-0.0017409953638999997
1.7175893095607148e+18,-0.0007105346883800003,-0.003993552151175,0.00081224848406
1.7175893097607148e+18,0.002050262270527,-0.01124961500245,-0.00544452980976
1.7175893099607148e+18,0.0048974015286,-0.0025885702452,-0.0062908335239
1.7175893101607148e+18,-0.0020763294888,0.007191744897819999,0.0010578621992750003
1.7175893103607148e+18,-0.00805423625305,-0.0014723704691619998,-0.0020283515740200002
1.7175893105607148e+18,-0.0038192759037749997,-0.0041188438478175,0.0014958236836549999
1.7175893107607148e+18,0.005848033051095,0.0019456660054700003,0.005743999756059999
1.7175893109607148e+18,0.0116171215189,0.01329279434925,-0.0030807866078749998
1.7175893111607148e+18,0.003923568548595,0.009658401855700001,0.006172688566779999
1.7175893113607148e+18,0.007008181321315789,0.009080433874684213,0.00043573672272526304
1.7175893115607148e+18,0.01112016363835,0.0034881148255149997,0.0027859347584549997
1.7175893117607148e+18,0.002745241345845001,0.00418753449931,-0.003369473363705
1.7175893119607148e+18,-0.001946690422725,0.0124062789606,0.0028921270393999997
1.7175893121607148e+18,-0.005806084792129999,0.0032477356552950004,-0.0062961519346749996
1.7175893123607148e+18,-0.011265523591800001,-0.01005919519725,-0.00288522413468
1.7175893125607148e+18,-0.0088025596222,-0.013009252864249999,0.0003958020999349999
1.7175893127607148e+18,-0.0045661503454,-0.00915014393336,0.00116255072652
1.7175893129607148e+18,-0.012766863719149998,-0.007137684058685,-0.00179545122145
1.7175893131607148e+18,-0.002202483754915,-0.003309049578985001,-0.008687003335295
1.7175893133607148e+18,0.013334917253599999,-0.00829317350896,-0.00603892809565
1.7175893135607148e+18,0.00657301030618,-0.003905896064855,-0.001292470790275
1.7175893137607148e+18,0.014739627134549998,0.01231557519515,-0.01081757230594955
1.7175893139607148e+18,-0.0014519752587849998,0.032789984997999996,0.015737169700999996
1.7175893141607148e+18,0.0011768002178644999,0.029971637576,0.01262633469915
1.7175893143607148e+18,0.007266240019850001,0.02552881217645,0.00031151004940799997
1.7175893145607148e+18,0.01131584416165,0.069238905517,0.030161467706349997
1.7175893147607148e+18,0.012369197467000001,0.06883388326579999,0.020862927310650002
1.7175893149607148e+18,0.00010899234333500019,-0.09064000089999999,-0.0346027906985
1.7175893151607148e+18,-0.0019313005846435,-0.053465782384500005,-0.011965403746495
1.7175893153607148e+18,-0.0074445635308309985,0.008364454211385,0.008567801816449998
1.7175893155607148e+18,-0.0005076811180234999,0.012028625538249998,-0.0044756798594099995
1.7175893157607148e+18,-0.0076532886781894745,0.0007694958353789475,-0.008062889884889473
1.7175893159607148e+18,-0.00833182218495,0.00032148659817000014,0.001745315850575
1.7175893161607148e+18,-0.00806070368235,-0.00900196278845,0.0020692862221050002
1.7175893163607148e+18,-0.01352323880545,-0.020130661875000004,-0.00435894366825
1.7175893165607148e+18,-0.009736182179099998,-0.013374833809350001,-0.0008439063504449999
1.7175893167607148e+18,-0.011743890983850001,-0.0064758257654900005,0.000354114820865
1.7175893169607148e+18,-0.008276404114000002,-0.010506153991450001,-0.0023996453267199997
1.7175893171607148e+18,0.00265010527805,-0.020354342553699997,-0.0012591294245999998
1.7175893173607148e+18,0.00550615317213,0.004102507687752501,-0.00229874153725
1.7175893175607148e+18,-0.002604832686815,0.01028781431395,-0.00234906990067
1.7175893177607148e+18,-0.0015079036005595,0.005231902777570001,0.00477618377776
1.7175893179607148e+18,0.0037814646494,0.0020521013998,0.0025572111538500002
1.7175893181607148e+18,0.006836433266175499,0.00542891681577,-0.0017323218518589998
1.7175893183607148e+18,0.008688967686765,0.013426510476699998,0.00276792501686
1.7175893185607148e+18,0.006773918902199999,0.008626751310849999,0.0020154845958699997
1.7175893187607148e+18,0.00937140849345,0.0029279220617250004,0.0016059268323960004
1.7175893189607148e+18,0.01107713002585,0.00260166800297,0.0029048331663555004
1.7175893191607148e+18,0.01066917348678,0.00971642000909,-0.0015526818456499999
1.7175893193607148e+18,0.001260343729495,0.012274395592549999,-1.579420634499997e-05
1.7175893195607148e+18,0.00166132757435,0.001250109143443,-0.0009195268910849998
1.7175893197607148e+18,-0.000448806711911,-0.0040236111382,0.0015071086527199999
1.7175893199607148e+18,-0.0050833408818947365,-0.007746386243684212,0.0014136631446789473
1.7175893201607148e+18,-0.004252844537005,-0.0044163650717,0.002383592975185999
1.7175893203607148e+18,-0.01082259772865,-0.003084559919135,-5.079885008184502e-05
1.7175893205607148e+18,-0.008533000876400002,-0.00573246852139,0.0006171105720899999
1.7175893207607148e+18,-0.0062879592177499995,-0.0102126188808,0.0011967767436849997
1.7175893209607148e+18,-0.006304973829550001,-0.008434198214700001,0.001042746438349
1.7175893211607148e+18,0.00022728326701999991,0.00138404660972,0.0011977587942749997
1.7175893213607148e+18,-0.0006284282310599999,0.006155806424569999,-0.0003494437725300001
1.7175893215607148e+18,0.0012528035556650002,0.0023882100737399993,0.0014298523776999999
1.7175893217607148e+18,0.002369785134235,0.00018740326046499999,0.00016026810056500004
1.7175893219607148e+18,0.0026747672816850006,0.002487924662755,0.0017287640076499998
1.7175893221607148e+18,0.001773673295775,0.00856998384657,0.00040704563147500003
1.7175893223607148e+18,0.0022306968341924503,0.0037183521548999994,0.0004453055619449999
1.7175893225607148e+18,0.00542730535385,0.001505656514253,-0.0006047777656594999
1.7175893227607148e+18,0.0052584322053000005,0.0009647149593215,-0.0001097065337549998
1.7175893229607148e+18,0.006826412852455001,0.00799013979901,0.0028268431313
1.7175893231607148e+18,0.0022818886558405,0.005269352433799999,0.0012180454389049999
1.7175893233607148e+18,0.0008149398024964998,0.002098286754275,-3.97114840200001e-05
1.7175893235607148e+18,0.001107250095889,-0.00159034958346,-0.000574970984575
1.7175893237607148e+18,0.00031001508469,-0.0029626131058350007,-0.0013226493436050003
1.7175893239607148e+18,0.0007702645496779997,0.00279847690878,-0.0006127666041834999
1.7175893241607148e+18,-0.005516657559249999,-0.0013130500213185,-0.0023642871121320004
1.7175893243607148e+18,-0.004716676414863158,-0.00510056757699421,0.0009319243928163159
1.7175893245607148e+18,0.005205918441400001,-0.016802305913549996,-0.0009883477410899998
1.7175893247607148e+18,0.013209780351149999,-0.020320544064500002,-0.002492200373745
1.7175893249607148e+18,-0.0022425717676999996,-0.005773261363795,-0.0018707342155549998
1.7175893251607148e+18,-0.004336996620650001,0.0002047124375500002,0.00041342874711000003
1.7175893253607148e+18,0.0028029831707864997,0.00851742492455,0.0067546311187299994
1.7175893255607148e+18,0.024452022602899998,-0.0012396462406599998,-5.3873111033500195e-05
1.7175893257607148e+18,0.0159859486622,-0.005082862527329999,0.00030478174461
1.7175893259607148e+18,0.021122969361,0.00540524538981,-0.007756877399530002
1.7175893261607148e+18,0.0251858529635,-0.00870184486604,-0.03900700802935
1.7175893263607148e+18,0.004768166586341001,0.0030862474577000006,-0.013477627635949998
1.7175893265607148e+18,-0.0019511968595604997,0.011943578860500001,0.001822245220095
1.7175893267607148e+18,-0.00018134362765000024,0.010188267455759998,-0.0002220643218250002
1.7175893269607148e+18,-0.003273066156475,0.011766801716149997,0.0004168774816390005
1.7175893271607148e+18,-0.005879120295994999,-0.00685431443865,-9.019293360000023e-05
1.7175893273607148e+18,-0.01327812229235,-0.004287869005855,-0.0023659015134899998
1.7175893275607148e+18,-0.011462712567950001,-0.015382506744499999,0.004337745096085
1.7175893277607148e+18,-0.005005403386399999,-0.013307720819350003,-0.0010407106307550001
1.7175893279607148e+18,-0.016518377885,-0.0035242898854800004,-0.0056543380375285
1.7175893281607148e+18,-0.0114936173203,-0.004315510982999999,0.00465237053026
1.7175893283607148e+18,-0.0037485779962200005,-0.008024480869050003,0.0007368797729650003
1.7175893285607148e+18,0.0018891821443578947,0.0012386808489500002,0.0035596520481052632
1.7175893287607148e+18,-0.00040208186257,0.007933208134135002,0.005847199540700001
1.7175893289607148e+18,-0.0008363780099915,0.003170762228585,-0.0011361536800988496
1.7175893291607148e+18,0.00116044068713,0.001516175558215,0.002236257784785
1.7175893293607148e+18,0.0020416048818865,0.00516632376252,0.0005721521856500001
1.7175893295607148e+18,0.004636911547830001,0.00786123192515,0.001865241443925
1.7175893297607148e+18,0.0018331353086630995,0.0109369333959,0.0067509513700700005
1.7175893299607148e+18,0.0011053347378449996,0.00404888548074,-0.0034024104009
1.7175893301607148e+18,0.00404631213755,0.004038047077575,-0.0025464533419
1.7175893303607148e+18,0.004304778843639999,0.0057790686489500006,-0.0020458063809000006
1.7175893305607148e+18,0.0022838034667715,0.00658038232925,0.00025087103125000004
1.7175893307607148e+18,0.0009039995493049999,0.000727566506292,-0.001596431876565
1.7175893309607148e+18,-0.0017371358233900004,-0.0120686873616,-0.002639817597765
1.7175893311607148e+18,-0.0055876909987105,-0.008550183768500001,-0.00234604693246
1.7175893313607148e+18,-0.00371945392129,-0.01518301926565,-0.0032796552402650004
1.7175893315607148e+18,-0.00339154649969,-0.01680482532815,-0.01583615567655
1.7175893317607148e+18,-0.013794283941649998,-0.00035169345789499995,0.004045159595979999
1.7175893319607148e+18,-0.006456117949079999,-0.00635493022824,0.008444055553415
1.7175893321607148e+18,-3.309769059999922e-06,-0.00023131653430300008,-0.007373814262150001
1.7175893323607148e+18,-0.00197711997881,0.004979082537605,0.006097645883934499
1.7175893325607148e+18,-0.0037193904167500008,0.0125720000014,0.0034265334136195
1.7175893327607148e+18,-0.000718319159964,0.0045027390646095,0.0031030158914350002
1.7175893329607148e+18,0.001644872582294737,-0.0001834244007578947,-0.0014485808788326313
1.7175893331607148e+18,0.0023799584709400003,0.0032790997001899995,0.003500706953055
1.7175893333607148e+18,-0.0019784888252979997,0.00463650437895,0.00043281659586499996
1.7175893335607148e+18,-0.00015647122628999996,0.0032307290471850006,0.00163824215405
1.7175893337607148e+18,0.003706869063945001,0.0019464772892084999,0.0034554055832649996
1.7175893339607148e+18,0.005434604513049999,0.00481556759922,0.00011733742406949998
1.7175893341607148e+18,0.0072833595445150005,0.011348315200450002,0.00489212323446
1.7175893343607148e+18,0.00540263626025,0.005400798821740001,-0.0018792569983249996
1.7175893345607148e+18,0.003237415628965,0.0041081933887,0.0031634404323635005
1.7175893347607148e+18,0.00451741147549,0.0014661577181,0.0006857999193850001
1.7175893349607148e+18,0.004846118670025,0.0042493283399865,0.0008632645184449998
1.7175893351607148e+18,0.0038076016473385004,0.004816982423514999,0.00314671099785
1.7175893353607148e+18,0.004968539799685001,-0.007356703386245,0.0025189973587400006
1.7175893355607148e+18,-0.0048866541012,-0.00747887638847,-0.007843452459159999
1.7175893357607148e+18,-0.010955148702349999,-0.008403570892344999,-0.008020708988535
1.7175893359607148e+18,-0.00395253686015,-0.010966598210615002,-0.00248927978094
1.7175893361607148e+18,-0.01130857067045,-0.00330141067678,-0.0006632160570100001
1.7175893363607148e+18,-0.00403600182653,-0.005412472117890499,-0.0009880620811000003
1.7175893365607148e+18,-0.004629577137640001,-0.00898221619445,2.8000999064999986e-05
1.7175893367607148e+18,-0.001135133649225,-0.004302902831159999,0.00051214143202
1.7175893369607148e+18,0.0019222895038375001,0.011800327885700002,0.0049230623754600005
1.7175893371607148e+18,-9.535990754210521e-05,0.008030174208610526,0.001521941581131579
1.7175893373607148e+18,0.0007070294696395,0.00123521711793444,0.0005994562993499999
1.7175893375607148e+18,0.004060061101285,-0.0009070273139530002,-0.0015893003379499997
1.7175893377607148e+18,0.011769299279649998,0.010952896170765,-0.004650254029744999
1.7175893379607148e+18,0.0207308566665,0.0102112978226,-0.004494667041849998
1.7175893381607148e+18,0.026877467706999995,0.00344638787791625,-0.006298256758565
1.7175893383607148e+18,0.0088536938412,7.153500399000034e-06,-0.004075819061959999
1.7175893385607148e+18,0.04836234720450001,-0.009554477541505,-0.007337449235295
1.7175893387607148e+18,0.008149664081299999,-0.010236226511399996,-0.016739817732800002
1.7175893389607148e+18,-0.04923988468849999,0.0246986244805,0.00591274197275
1.7175893391607148e+18,0.01849578743525,0.0267072896475,0.0035794882568500005
1.7175893393607148e+18,0.09018023255949999,-0.007866305647696,-0.00425699905086
1.7175893395607148e+18,-7.557305531499979e-05,0.00292043411238,-0.00615473056077
1.7175893397607148e+18,-0.06628333451299999,0.019950867580684997,0.009477602633415
1.7175893399607148e+18,-0.0481040016289,-0.002394857903746,0.006806090020599999
1.7175893401607148e+18,0.030288304644845,-0.020225664670465,0.008117283095049999
1.7175893403607148e+18,0.02407368433235,-0.0309804850265,-0.0010276717249700002
1.7175893405607148e+18,-0.0275027732365,-0.0094913591753,-0.0006501435774000002
1.7175893407607148e+18,-0.01671821011645,-0.00557586858883,-0.00021790484289500026
1.7175893409607148e+18,0.002131469222265,0.041643510480035,0.007552544620600001
1.7175893411607148e+18,-0.0244882473278,0.561206603045,0.137065231889
1.7175893413607148e+18,-0.154248203155,0.043268672425100005,0.20474642803749998
1.7175893415607148e+18,-0.11861630686368421,-0.15957056319842103,0.011732470843684211
1.7175893417607148e+18,0.37656468675,-0.2681651988743,-0.11068987389405001
1.7175893419607148e+18,0.6021645203149999,0.1620643794814,-0.240916117275
1.7175893421607148e+18,0.32422928586500005,0.10696896379299999,-0.12396360504431851
1.7175893423607148e+18,0.24481423274000008,0.10951528931155,-0.19433484133399997
1.7175893425607148e+18,-0.04357087200799999,0.11603079107829999,-0.030817315583899996
1.7175893427607148e+18,-0.2387196844435,0.05435067496898499,0.2672195322865
1.7175893429607148e+18,-0.14639331097384997,-0.02619598284455,0.122382676316
1.7175893431607148e+18,-0.091275020322,-0.25078612863899996,-0.12095515378950002
1.7175893433607148e+18,0.030071155961600003,-0.7171034321049999,0.012067077890499999
1.7175893435607148e+18,-0.2103750379775,0.237071135401,0.0080975956744
1.7175893437607148e+18,-0.15312845594999996,1.1095823169200003,0.12175761590800001
1.7175893439607148e+18,-0.2099018790491,0.16563237645549997,-0.1689838433043
1.7175893441607148e+18,-0.34973586870499995,-0.531753075637,-0.404685595625
1.7175893443607148e+18,-0.2624141790712,-0.17361493068185002,-0.495139187575
1.7175893445607148e+18,0.8859274864350001,0.29026226024199997,-0.12691391356465
1.7175893447607148e+18,0.61309873014,0.346940024195,0.1815345017245
1.7175893449607148e+18,0.2579219680215,-0.023118774591,0.13185047433215
1.7175893451607148e+18,0.23669506758499997,-0.65532489121,0.12747233002925001
1.7175893453607148e+18,-0.08714852936195,0.0523940259145,0.11148785924645
1.7175893455607148e+18,-0.23687658794000002,0.34631090797,0.1130039409699
1.7175893457607148e+18,-0.3919740954421053,0.2999598766231579,-0.03909556513989473
1.7175893459607148e+18,-0.7050953537200002,0.022129831186650017,0.08199694604100001
1.7175893461607148e+18,-0.1685271113235,-0.203571492993,-0.1585966235075
1.7175893463607148e+18,0.55687415302,0.13027565541855,-0.0421544233106
1.7175893465607148e+18,0.613452388345,0.08966384170265,-0.021831790919
1.7175893467607148e+18,0.37022416294,-0.0712182618595,0.11999542690215
1.7175893469607148e+18,0.17020086935100004,-0.72958111241,0.10259068884295001
1.7175893471607148e+18,-0.16747030670750002,-0.18407439673525,-0.011076834061499995
1.7175893473607148e+18,-0.14888237601775,0.341898856875,0.14479289347815
1.7175893475607148e+18,-0.39303735941850004,0.8419212595,0.13449683958069997
1.7175893477607148e+18,-0.6338034436150001,-0.01134930491005,0.017123992839999998
1.7175893479607148e+18,-0.33913111612,-0.219942539203228,-0.36014887616
1.7175893481607148e+18,0.393148348009,0.1391727685733,-0.0044569831381
1.7175893483607148e+18,0.648414623735,0.142732435834,0.0855272416453
1.7175893485607148e+18,0.5100310042449999,0.042222688375749995,0.10814238488599999
1.7175893487607148e+18,0.33188916891000003,-0.16187986433399998,0.0619214349885
1.7175893489607148e+18,0.2171457352055,-0.7428449556150001,0.04773658393635001
1.7175893491607148e+18,-0.0405715375422175,0.003542808536499989,-0.005282128888000002
1.7175893493607148e+18,-0.19722775106389998,0.5758216574849999,0.3213709536955
1.7175893495607148e+18,-0.5434254601599999,0.36212580517375004,-0.0867411447854
1.7175893497607148e+18,-0.800890603665,-0.12527992892099998,-0.13337224829150002
1.7175893499607148e+18,-0.46346624494999994,-0.475840340565,-0.41344472616
1.7175893501607148e+18,0.36208650072142107,0.03995580207052631,-0.10735336613473687
1.7175893503607148e+18,0.7800546944000001,0.28354739547,0.1032282893603
1.7175893505607148e+18,0.535323821015,0.20191982948500004,0.167838770711
1.7175893507607148e+18,0.21168595207799998,0.09101793039449999,-0.0307606055801
1.7175893509607148e+18,0.1419640233283,0.010983201281499998,-0.05568210906811499
1.7175893511607148e+18,0.24326341451500003,-0.4256552547139999,0.11825763303799999
1.7175893513607148e+18,0.039452095931299995,-0.3413064061665,0.07900007209255
1.7175893515607148e+18,0.012099200616274999,0.17924178968850002,0.06657353724507
1.7175893517607148e+18,0.018469030683779007,0.4664568744750001,0.18128120424599997
1.7175893519607148e+18,0.2733410247575,0.5830125555350001,0.070036149084064
1.7175893521607148e+18,0.31362127735999995,0.21119850678420002,0.1912315073035
1.7175893523607148e+18,0.21999750106639998,-0.5439398847500001,0.036483282040999994
1.7175893525607148e+18,-0.2550132326815,-0.574017632015,-0.257599462573
1.7175893527607148e+18,-0.8115567206950001,0.05480083902949999,-0.08837971771549999
1.7175893529607148e+18,-0.40999891609,0.11461038644299999,0.0305838991572
1.7175893531607148e+18,-0.34073588401000005,-0.0987946911665,0.1008338654365
1.7175893533607148e+18,-0.377505868675,0.16128163723615,0.125234277644
1.7175893535607148e+18,-0.15609997162495004,0.14263685099055,0.142913887461
1.7175893537607148e+18,-0.0481749418315,-0.00462780068735,0.08058075690825
1.7175893539607148e+18,0.0211827141225,-0.25488413349199995,0.1195123992865
1.7175893541607148e+18,0.051648099996100004,-0.2856065683050001,0.0913191658475
1.7175893543607148e+18,0.14804333624157892,-0.31105414660684216,-0.11754560146721053
1.7175893545607148e+18,0.07078553496270001,-0.050142038378550004,-0.1263057997385
1.7175893547607148e+18,0.1662491314065,0.16872059815049995,-0.28857283964999997
1.7175893549607148e+18,-0.19579109549999998,0.15702395849849998,-0.12679644058949996
1.7175893551607148e+18,-0.20087615959,0.026991489620500003,-0.131782314371
1.7175893553607148e+18,-0.1022797636715,-0.048364815955,-0.102119760964
1.7175893555607148e+18,-0.043988142790450005,-0.008678583114365,-0.0321245413161
1.7175893557607148e+18,-0.005597160279410001,0.017234074395400003,-0.011887602438189999
1.7175893559607148e+18,0.019274806976475,0.019449040977335,-0.10884627047015001
1.7175893561607148e+18,-0.03286676404525,0.0022993718841499977,0.06419555081625
1.7175893563607148e+18,0.010374994040100002,-0.015270952297699997,0.042946649709425
1.7175893565607148e+18,-0.0033593351492,0.0023832052467699975,-0.03442842179
1.7175893567607148e+18,0.21183685139500003,-0.2261277088775,0.19494495848930002
1.7175893569607148e+18,0.015290906142149997,-0.144592432125,0.54635017514
1.7175893571607148e+18,-0.13801300818749998,-0.0540982874945,0.47018801645
1.7175893573607148e+18,0.006766748737649993,0.116000569157,0.14279733139545
1.7175893575607148e+18,0.0059889762915499994,0.09275092960275,0.0156707562889
1.7175893577607148e+18,-0.013051612303049997,0.031541051716,0.03203923599755
1.7175893579607148e+18,-0.02228230233295,0.021248280501300003,0.085282538459
1.7175893581607148e+18,0.005997017410849999,-0.018635815359800002,-0.007399015117299998
1.7175893583607148e+18,0.07308033379099999,0.023849779978510004,-0.03592921216115
1.7175893585607148e+18,0.0949181258645,0.00596337890051,0.023597176896399997
1.7175893587607148e+18,-0.026214678968105264,-0.0464984897011579,-0.0014559458141421055
1.7175893589607148e+18,-0.0641842251663,-0.12426759247300001,0.051880232897000014
1.7175893591607148e+18,0.00037404440786000003,-0.066336585581,0.0361776523301
1.7175893593607148e+18,-0.00886141920995,-0.027379101962485004,0.0110575448836935
1.7175893595607148e+18,-0.019179969514000004,-0.0164181760043,-0.005503576161565001
1.7175893597607148e+18,-0.0266249886715,-0.007927471935154501,-0.004420787520535
1.7175893599607148e+18,-0.036413896828500006,-0.016654211795199998,0.016598659904650002
1.7175893601607148e+18,-0.0415957286955,-0.011806845572299999,0.0163384038485
1.7175893603607148e+18,-0.0361002477815,-0.01028821846835,0.0026044425379900004
1.7175893605607148e+18,-0.036130852997500004,0.0041537821064,0.013943331124800002
1.7175893607607148e+18,-0.0191078709202,-0.0011758318869600002,0.00519889296228
1.7175893609607148e+18,0.0195024726449585,0.020833911048999995,0.005678291012605001
1.7175893611607148e+18,0.028142484090999998,0.0092323212995,0.0020841561429400008
1.7175893613607148e+18,0.021098495414,0.008300584914999999,-0.0009408494747800003
1.7175893615607148e+18,0.020541723631,0.01440190025645,0.010856102366596999
1.7175893617607148e+18,0.006114687782235,0.0029845322778299993,0.0019246577517764603
1.7175893619607148e+18,0.003992113994875,-0.0035116494488550004,0.0010367479874250002
1.7175893621607148e+18,0.00013963484683499994,0.0006404662854849999,-0.0024983320907174997
1.7175893623607148e+18,-0.00461296703477,-0.001884700808925,-0.0025280413390300002
1.7175893625607148e+18,-0.020131365022999996,-0.0077162990111500004,-0.012898947042035
1.7175893627607148e+18,-0.019539742639,-0.0077885956969,0.00250553453809
1.7175893629607148e+18,-0.01859341966163158,-0.010404857132810526,-0.007890677716789474
1.7175893631607148e+18,-0.025604245205499997,-0.00723305240965,0.001251477649225
1.7175893633607148e+18,-0.0221752468495,-0.004213494353465,0.00275734157782
1.7175893635607148e+18,-0.0187002354305,-0.00315445876624,0.006473742232855001
1.7175893637607148e+18,-0.011728560249435,-0.0028262924575250007,0.00106836339697765
1.7175893639607148e+18,-0.0043516496893100005,0.0032174885885199998,-0.00025084476216
1.7175893641607148e+18,0.0013844953848999998,0.0013663506572549999,0.0007156043487899999
1.7175893643607148e+18,0.0035244299214355,0.00020124665464999985,0.00017465490384500006
1.7175893645607148e+18,0.01650125065485,0.004929462703711,-0.002175125316565
1.7175893647607148e+18,0.019207651122000003,0.005285603558849999,-0.0017201614915730002
1.7175893649607148e+18,0.031060761493999993,0.0350240353035,9.960097382450002e-05
1.7175893651607148e+18,0.064377627149,0.05326145514899999,0.0031520031856250006
1.7175893653607148e+18,0.10126807260849999,0.030774977337,-0.02730405875435
1.7175893655607148e+18,-0.00877351955294,0.0012197486354449995,-0.0079567869773
1.7175893657607148e+18,-0.0029788560813350006,-0.0022309444553199995,0.005010257195650001
1.7175893659607148e+18,0.009097182586800001,0.004035672699654999,0.013541049143129999
1.7175893661607148e+18,-0.008633181033034999,-0.00845712810945,0.017720313742650002
1.7175893663607148e+18,-0.0597506141285,-0.018752652953450005,-0.0033297173438999995
1.7175893665607148e+18,-0.0261357389393,-0.00226538772381,-0.0035937648843999996
1.7175893667607148e+18,-0.031972995214,-0.0172154996708,-0.001465011376755
1.7175893669607148e+18,-0.024942369572499998,-0.0177190625575,0.0057569760125
1.7175893671607148e+18,-0.01503189969805,-0.0065296249840850005,0.001550512691111
1.7175893673607148e+18,0.000884909415368421,-0.01848150778168421,0.0032660142567578947
1.7175893675607148e+18,0.0005420775851650003,-0.002828197891495,0.0008461460703439999
1.7175893677607148e+18,0.0011701557203850001,-0.004388734849670001,0.0022142112254649993
1.7175893679607148e+18,0.00226957612904,-0.0017197765467854998,0.0028905609796574996
1.7175893681607148e+18,0.008581940457300001,0.0060673571657900004,-0.00118279567683
1.7175893683607148e+18,0.012015517498599998,0.008590301428785,0.004959650669715
1.7175893685607148e+18,0.00950133104379,0.004693521541814999,0.0050719024498
1.7175893687607148e+18,0.006227888562610001,0.004095583578,0.00048844317793735
1.7175893689607148e+18,0.0069794788955499995,6.504430779999997e-05,-0.0023635927471034996
1.7175893691607148e+18,0.001534492534135,0.00046202426310500003,4.8914592475000145e-05
1.7175893693607148e+18,-0.00111037889704,-0.00159969063532,0.0036141379620484152
1.7175893695607148e+18,-0.0126850373113,-0.008588513335399998,0.00350019553498
1.7175893697607148e+18,-0.018458385347000002,-0.004117787547825,-0.0030161999456319996
1.7175893699607148e+18,-0.017786290729500002,-0.0044336812105,0.005427057575450001
1.7175893701607148e+18,-0.015643389244,-0.004205802828015,0.001419396535534
1.7175893703607148e+18,-0.01581660369265,-0.00366764810485,0.0005190213327750001
1.7175893705607148e+18,-0.0164395822205,-0.0002558568085065,0.0035555199253599996
1.7175893707607148e+18,-0.01293952185775,-2.8412320580000004e-05,0.0037241173559399996
1.7175893709607148e+18,-0.0124806916106,-0.0008637620455295,0.0033179802761699995
1.7175893711607148e+18,-0.01771799148995,-0.004191115166615,-0.0015667964412449998
1.7175893713607148e+18,-0.01345057028765,-0.00156693756584,0.001450378284746
1.7175893715607148e+18,-0.013147341773736844,0.0037001477444052627,0.0053869291992631576
1.7175893717607148e+18,-0.0009220047969750001,0.0009967785269940001,0.003789931401925
1.7175893719607148e+18,0.0030014369521,0.004047776554865,-0.00022147258285499998
1.7175893721607148e+18,0.0038748874094849993,0.009372257301449999,0.0007780971820739999
1.7175893723607148e+18,0.015408581169500002,0.0055542244693500015,-0.001780318835475
1.7175893725607148e+18,0.013589546503000002,0.0058927519945,-0.0025157003140050004
1.7175893727607148e+18,0.0209221705795,0.00591481313382,-0.0019653944473
1.7175893729607148e+18,0.0192676318345,0.00251973000706,-0.0002449007996249999
1.7175893731607148e+18,0.0223607024175,0.013477610400594999,-0.00512623477808
1.7175893733607148e+18,0.070789843055,0.06099584428549999,-0.00911953084875
1.7175893735607148e+18,0.02921176673855,0.014655589452099998,-0.001673375646535
1.7175893737607148e+18,0.019743204314155,0.0036693149133,0.014366218866800003
1.7175893739607148e+18,-0.002359071664825,0.005448083943145001,0.003636392188415
1.7175893741607148e+18,0.0046811763895,-0.012762665713449996,-0.006571514962740001
1.7175893743607148e+18,-0.022463296446295,-0.014364739789439997,-0.00948026066657
1.7175893745607148e+18,-0.027448348701,-0.0229022099812585,-0.00683028508185
1.7175893747607148e+18,-0.0201602315985,-0.005486931081345001,0.0037734811661335
1.7175893749607148e+18,-0.024434031732,-0.0014916066109350002,0.005779950285664999
1.7175893751607148e+18,-0.018712850613999996,-0.0041947756894,-0.00014347324027000008
1.7175893753607148e+18,-0.01566859437145,-0.0048575983879,0.009584044315600001
1.7175893755607148e+18,-0.020897240379,-0.010191848536500002,0.0077464567263
1.7175893757607148e+18,-0.014347884877210525,-0.0030701624315736843,-0.0004139912596736842
1.7175893759607148e+18,-0.0017779442829499999,0.0021389043132899995,0.00070892579384
1.7175893761607148e+18,-0.000318096997272,0.00256884030529,0.0001705259084245
1.7175893763607148e+18,0.007941274997250001,0.00014093481888,-0.0008561657391699999
1.7175893765607148e+18,0.008034576126450001,0.002401450724545,0.0017117049019749996
1.7175893767607148e+18,0.007441128626800001,0.007841279340249998,0.014084445195930499
1.7175893769607148e+18,0.0129474138608,-0.006645807874080001,-0.007969125035050002
1.7175893771607148e+18,0.00769302822904,0.004018209425975,-0.028452667173499997
1.7175893773607148e+18,0.011244264827849999,0.004884182743655,0.025379369547599995
1.7175893775607148e+18,0.016576144122755,0.004716684657499999,-0.02397509263799
1.7175893777607148e+18,-3.0162045654999936e-05,-0.004856151761404999,0.002229315519885
1.7175893779607148e+18,-0.0005685134092235002,-0.0116813044875228,0.0060404181717
1.7175893781607148e+18,0.001906820340065,-0.01921057733645,-0.0368936673735
1.7175893783607148e+18,-0.012718961316835,-0.0030815142849500003,0.005751568911627
1.7175893785607148e+18,-0.020443330239999998,0.014532600005580001,0.030874099175700005
1.7175893787607148e+18,-0.018343904009849997,-0.00438338518151,0.00482750842335
1.7175893789607148e+18,-0.01405255717695,0.004249604127794999,0.00914434732994
1.7175893791607148e+18,-0.011151607614349999,-0.00155189202928,-0.005535121657675
1.7175893793607148e+18,-0.01109849193595,-0.0013352169101831497,0.00836741853235
1.7175893795607148e+18,-0.007564538345075001,0.0035934552171985002,0.007080312626655
1.7175893797607148e+18,-0.0030296099372749997,0.00401646398823,-0.0017527885386049995
1.7175893799607148e+18,0.0016339055611700002,0.0008693780692099999,0.002581357722955
1.7175893801607148e+18,0.00482066642296421,-0.002556197394221052,-0.0001676221328368421
1.7175893803607148e+18,0.004579929809335,0.004614455089855,0.005886083223604999
1.7175893805607148e+18,0.00687302773585,0.0022080677387099996,-0.0005460929242445
1.7175893807607148e+18,0.0087756576481,0.0011349436826465,-0.002885989798155
1.7175893809607148e+18,0.022060675128,0.011611946905,4.327535275500004e-05
1.7175893811607148e+18,0.079771802576,0.045259154029,-0.010037441400699999
1.7175893813607148e+18,0.030679055207334993,0.01903086664435,-0.01668955557997
1.7175893815607148e+18,-0.0088652257341,0.008066725759229999,0.00131035475048
1.7175893817607148e+18,0.015269798320764999,-0.006553277652685001,0.017856650006999996
1.7175893819607148e+18,-0.0166629315816,-0.007082044874085,9.64142614999996e-05
1.7175893821607148e+18,-0.030525908572900003,-0.02557232342775,-0.00744886825605
1.7175893823607148e+18,-0.0205713630655,-0.0076881823303799985,0.007199287437900001
1.7175893825607148e+18,-0.024409534317500002,0.0007814436104,0.00658313913145
1.7175893827607148e+18,-0.021975995505999997,-0.00382150153449,0.0011369140703049998
1.7175893829607148e+18,-0.012154864344349998,-0.0024895240321150002,0.002344391541664
1.7175893831607148e+18,-0.006951697799499999,0.010270425804725002,0.009320341726599998
1.7175893833607148e+18,-0.014526822162099998,-0.0082211002008,-0.002727392257695
1.7175893835607148e+18,-0.006373144324655,-0.008323967130899999,0.0032797607069500008
1.7175893837607148e+18,-0.00460485391126,-0.0065407644378650005,-0.00274251401423
1.7175893839607148e+18,0.00736743151105,0.0015035577642195,0.0003384191426550001
1.7175893841607148e+18,0.011596973845450002,0.0009706785871899995,-0.0019698806340825
1.7175893843607148e+18,0.007860121930263158,-0.002855045714794737,0.0008358752942894738
1.7175893845607148e+18,0.007736862275899999,0.0007143216119805001,0.0025561232934849997
1.7175893847607148e+18,0.007656606822549999,0.003099531616125,0.0028548787347899996
1.7175893849607148e+18,0.008399038144750001,0.0084785806944,0.005398838868151
1.7175893851607148e+18,0.0028878718614149994,0.006229541968680001,0.0030078192938550003
1.7175893853607148e+18,-0.00223015288354,0.00020549090693199994,0.001007664285125
1.7175893855607148e+18,-0.01054106170703,-0.00330451412591,-0.004116416751590001
1.7175893857607148e+18,-0.017211945308000003,-0.008756232866984999,-0.00611595929385
1.7175893859607148e+18,-0.019682739581899998,-0.0033808828535880006,0.0018291122337450003
1.7175893861607148e+18,-0.0167554598759,-0.006948221041385,0.0015268523362269998
1.7175893863607148e+18,-0.012472907873,-0.004379159747715,0.0028118491522735
1.7175893865607148e+18,-0.0077184911817500005,-0.00531081663215,-0.00029753848791500004
1.7175893867607148e+18,-0.006278749438999999,0.005643716280165001,0.002289403724715
1.7175893869607148e+18,-0.0069574233605499995,0.003011692688035,0.00104744681736
1.7175893871607148e+18,0.00272773536862,0.00022530670105000002,0.0021212459424950003
1.7175893873607148e+18,0.0041513884556050006,0.0014887705968000002,0.0040886469417500005
1.7175893875607148e+18,0.006888421182615,0.0021279272564905,-0.0011308813409800001
1.7175893877607148e+18,0.0130130053842,-0.0009472756966200002,-0.001422122161545
1.7175893879607148e+18,0.007155934802500001,0.001171348017025,-5.6011538239999916e-05
1.7175893881607148e+18,0.00737961116215,0.00133082276742,0.0001294873771
1.7175893883607148e+18,0.015802392364000002,0.008653686364465,0.000597576412935
1.7175893885607148e+18,0.0317727849805,0.029317319206000003,0.007717198069705
1.7175893887607148e+18,0.04308375980842105,0.03311648381053158,0.012203968987526315
1.7175893889607148e+18,0.05528936718665002,0.007295141677430001,-0.014898830139350002
1.7175893891607148e+18,-0.020442247740450004,0.012367940537599998,-0.01897146103455
1.7175893893607148e+18,-0.014067485208250002,0.00356118995687,0.0091548527356
1.7175893895607148e+18,0.014856443495969998,-0.0026197571305699996,0.017156058922100002
1.7175893897607148e+18,-0.006595025153277501,-0.00021262622891,-0.0015009588331499999
1.7175893899607148e+18,-0.05410424936505,-0.019265922804745,-0.002164429734415
1.7175893901607148e+18,-0.030569774472,-0.013181662327249998,-0.014322312816400002
1.7175893903607148e+18,-0.028634562715500002,0.00032484769485500016,0.008097101398774998
1.7175893905607148e+18,-0.0493472395455,-0.001979614462445,0.005809852783949999
1.7175893907607148e+18,-0.0382917892195,0.014146522806599999,0.00933500322265
1.7175893909607148e+18,-0.015009255836264997,-2.2517825780000076e-05,0.0077957194703949986
1.7175893911607148e+18,-0.004889389488195,-0.004316657618965001,0.011642154143429999
1.7175893913607148e+18,0.0024176656267999998,-0.00087378553872,0.0019876089005450006
1.7175893915607148e+18,0.007164404669609999,0.004770586916215,0.0033627725614649995
1.7175893917607148e+18,0.00213453710302,0.003480143967285,0.0062659213377750005
1.7175893919607148e+18,0.007740414480249999,0.0026305889187235,0.00431802312379
1.7175893921607148e+18,0.015063536633400001,0.0008616254198250002,0.0008136678371049999
1.7175893923607148e+18,0.012090156715649999,0.00250974931689,0.00840549733877
1.7175893925607148e+18,-0.006405398598550001,0.012427245103585002,0.010488867772249999
1.7175893927607148e+18,0.011403830093649998,0.00412128838942,0.004659924760970199
1.7175893929607148e+18,9.715811986315783e-05,0.0068644266090000005,0.0029602392431000006
1.7175893931607148e+18,-0.0050409531687,0.006706529750935,0.0119489482136
1.7175893933607148e+18,-0.000937981624115,0.005880620461777,-0.0019156032237200003
1.7175893935607148e+18,-0.0174607732332,0.0036242983129600006,-0.00587409527505
1.7175893937607148e+18,-0.021020658640499998,-0.0012649494310304997,-0.0005000931210300001
1.7175893939607148e+18,-0.0213695961045,-0.0095677306408,-0.004410518548685
1.7175893941607148e+18,-0.016696769791000002,-0.01025812472198,0.00128900660787
1.7175893943607148e+18,-0.014342819061849999,-0.007620693999499999,0.00114638547529
1.7175893945607148e+18,-0.012245980743700001,-0.005577354255549999,0.0012164902872549997
1.7175893947607148e+18,-0.008134680264550002,-0.005261506617590001,0.00272207979578
1.7175893949607148e+18,-0.0031535695307400003,-0.006884308846619999,0.0027016137028799997
1.7175893951607148e+18,-0.00500023809716,-0.0034926488471300004,-0.0006871914490049999
1.7175893953607148e+18,-0.00891978626585,-0.003191133381781,-0.0026252087904549996
1.7175893955607148e+18,0.0012748064589499998,-0.00010908019901570008,0.001205975678795
1.7175893957607148e+18,0.00618291189895,0.0014671963231285003,0.0002563657529735
1.7175893959607148e+18,0.010421722650349999,0.00140312224387,-0.003505088610105
1.7175893961607148e+18,0.0229416393215,0.0079490976669,0.006742174982205
1.7175893963607148e+18,0.138614255551,0.039110778297350005,-0.048513449816749994
1.7175893965607148e+18,0.028462577238799996,0.0180799050608,-0.039457500166499994
1.7175893967607148e+18,0.0009742068818000014,0.006692157982000001,0.02971651800855
1.7175893969607148e+18,0.028041582298412998,0.0020974693586999996,0.01154663737285
1.7175893971607148e+18,-0.020725056897052632,-0.020628414214736844,-0.016735187952
1.7175893973607148e+18,-0.0109431957475639,-0.0175303433205965,0.0036975942558000003
1.7175893975607148e+18,-0.004638685355904999,-0.0075021766823000005,-0.0016133214521569998
1.7175893977607148e+18,-0.008125461579309,-0.006129706389215,-0.0007632649911450001
1.7175893979607148e+18,-0.02697029365255,-0.009025127123395,0.0033333168365349995
1.7175893981607148e+18,-0.05567161403549999,-0.0176807155138,0.0023019131214900004
1.7175893983607148e+18,-0.034308895654,-0.0005379260051000002,0.008740445378039998
1.7175893985607148e+18,-0.029909799712500008,-0.009695741807345,0.004273887462480001
1.7175893987607148e+18,-0.019366854104100002,-0.00338263449351,0.009227355552
1.7175893989607148e+18,-0.0168746839274,-0.000989809865,0.007407020777699999
1.7175893991607148e+18,-0.0102884458606,-0.00056538212519,0.0036288071016399998
1.7175893993607148e+18,-0.002427662373575,-0.000619305265685,0.00405492436835
1.7175893995607148e+18,0.002649034094125,0.0012186259729095,0.0010224946541019001
1.7175893997607148e+18,0.0031071911449649997,0.00270673111665,0.0013704928045889999
1.7175893999607148e+18,0.005226067430305,0.0012599777604535,-0.0025866258424025
1.7175894001607148e+18,0.0060389117919500005,0.00112661026067,-0.00010975670882500006
1.7175894003607148e+18,0.007329476403650001,0.0020140378387250002,-0.0022459130152125
1.7175894005607148e+18,0.010226414748200002,0.0046795707225795,0.0008473525464199999
1.7175894007607148e+18,0.008771529327999999,0.0037578389659949996,0.0018216772238249998
1.7175894009607148e+18,0.0141337052219,0.0013664604746355003,0.0013196229817935
1.7175894011607148e+18,0.0068180219506,-0.001977826815044,0.0018008656916955004
1.7175894013607148e+18,0.003513652656765,0.002300114955804,-0.00039963935858149997
1.7175894015607148e+18,0.0047145088957105275,0.005439342771610528,-0.0018254989990631578
1.7175894017607148e+18,0.004095200053544999,0.000828856066765,0.0009994886989849999
1.7175894019607148e+18,0.0039793920820349995,0.00026300910394000003,-0.00104881975559
1.7175894021607148e+18,-0.00080545563252,-0.0016262072662049996,-0.0005468080634562499
1.7175894023607148e+18,-0.005710233701399999,-0.002599541080475,0.0019057209603449998
1.7175894025607148e+18,-0.00980027290029,0.00054598068245,0.002963359322295
1.7175894027607148e+18,-0.013201922038,-0.001791187172055,0.00289564341072
1.7175894029607148e+18,-0.00923917796435,-0.0007059043128304998,0.007703707861955
1.7175894031607148e+18,-0.0065377958819275,-0.00259299813775,-0.00041546564319699985
1.7175894033607148e+18,0.03066637438041,0.008369246165885,0.000998300901855
1.7175894035607148e+18,0.108520480984,0.05113931871379,-0.004395798290965
1.7175894037607148e+18,0.21491594165500003,-0.11383526390350003,-0.0903572358175
1.7175894039607148e+18,0.253551220895,-0.128869887815,-0.066061332457065
1.7175894041607148e+18,0.279743848745,-0.099322146324,0.08848232561899999
1.7175894043607148e+18,0.11407075059199998,-0.091153237887995,0.27249518484
1.7175894045607148e+18,0.023007584948445,0.2451417487175,-0.0842713425868
1.7175894047607148e+18,-0.252430858089,0.37530565187500003,-0.15640362985700001
1.7175894049607148e+18,0.053474362382000006,-0.028578303857500008,0.086943637898475
1.7175894051607148e+18,0.33321557567000004,-0.12183762096225001,-0.16754313529299997
1.7175894053607148e+18,0.25284401924,0.034234848332849996,-0.08898109346300001
1.7175894055607148e+18,0.0997392909565,0.10952664782769998,-0.008547073485750002
1.7175894057607148e+18,0.16082900381210527,-0.00953599544668421,-0.07227092128473685
1.7175894059607148e+18,0.32412565201500004,-0.12395665262900002,-0.0196158555285
1.7175894061607148e+18,-0.006524440186500001,-0.03849066508485,-0.0631625835795
1.7175894063607148e+18,-0.10567983025289998,-0.05737432306899999,0.04693141151225
1.7175894065607148e+18,-0.6046874090900001,0.08782484680400002,0.1240098103872
1.7175894067607148e+18,-0.6445147768,0.0612872162645,0.12531614043400002
1.7175894069607148e+18,-0.36019516364500004,-0.07368504517850001,0.07571342090324999
1.7175894071607148e+18,-0.237142355918,-0.45962657854,0.11639845743195001
1.7175894073607148e+18,-0.252080357077,-0.0009174383998499982,0.028709164772700003
1.7175894075607148e+18,0.08675928767350001,0.09255735301715,-0.0635446620165
1.7175894077607148e+18,0.12333213686049997,0.6369509953761501,-0.464545393741
1.7175894079607148e+18,0.006456330701499998,0.33864806776754997,-0.2355572231149999
1.7175894081607148e+18,-0.2168563568025,-0.1883737087365,-0.16615905072550002
1.7175894083607148e+18,-0.306487295775,0.13208384700549997,-0.11625714822399999
1.7175894085607148e+18,0.2270341969985,0.03827161793400001,-0.24855824765899998
1.7175894087607148e+18,0.762808704375,0.04267402307615,0.19628492735465
1.7175894089607148e+18,0.287721223023,-0.49276989307950003,0.1999671079215
1.7175894091607148e+18,-0.10382741783300001,-0.49927999749999996,-0.16865289955619997
1.7175894093607148e+18,-0.18934277109699998,0.007449185830099997,-0.06397080993745001
1.7175894095607148e+18,-0.0989835445486,0.33384745046000003,0.027711345406944997
1.7175894097607148e+18,-0.36565524712499997,0.8076522231200001,0.342384297212
1.7175894099607148e+18,-0.2203352168889474,0.29305376927421045,-0.09427203954363157
1.7175894101607148e+18,-0.23700695278950001,-0.17239914405850001,-0.09465843905214998
1.7175894103607148e+18,0.243943355608,0.06884765727700001,-0.05540265757462
1.7175894105607148e+18,0.527367883915,-0.12633202983060499,-0.01597160267555
1.7175894107607148e+18,0.4767832167449999,-0.28600572793,-0.033671550969550004
1.7175894109607148e+18,0.328144845365,-0.483727017045,0.080009065799
1.7175894111607148e+18,-0.07088982531549999,-0.3891924958227465,-0.04605006286900002
1.7175894113607148e+18,-0.08313680043705,0.08922199433807075,0.04457563398855001
1.7175894115607148e+18,-0.22791155165034996,0.7702392674899998,0.14749132541735
1.7175894117607148e+18,-0.49049441962500007,0.6556519769365,0.03638582461184999
1.7175894119607148e+18,-0.35901720822000005,-0.310906439095,-0.310559243715
1.7175894121607148e+18,-0.033031189019175004,-0.1266241366935,-0.09541528653360001
1.7175894123607148e+18,0.63216130882,0.019932555581500002,0.09876126166215
1.7175894125607148e+18,0.53769502341,0.10475383886865,-0.052845948350250006
1.7175894127607148e+18,0.21959182359999999,-0.24060989804500005,-0.07679345225600001
1.7175894129607148e+18,0.14592386593525,-0.6323043361349999,0.14431071667805
1.7175894131607148e+18,-0.22910561282049996,-0.21633124071640003,0.0222230625835
1.7175894133607148e+18,0.0381479844515,0.24611825379855,0.06351287294647498
1.7175894135607148e+18,-0.11847734078174998,0.8644590199350001,0.21920377631599997
1.7175894137607148e+18,-0.387607183305,0.5644347145924999,0.11587179308533699
1.7175894139607148e+18,-0.32450380622499997,-0.441532532865,-0.17430738555499997
1.7175894141607148e+18,-0.33997830337949997,-0.3634906057463,-0.18880858867
1.7175894143607148e+18,0.5264554440864737,0.1970987928145263,-0.02413929768726316
1.7175894145607148e+18,0.8427325517200002,0.0378262023935,-0.10060684810699998
1.7175894147607148e+18,0.224302546027,-0.1302219631182,-0.18122190965147997
1.7175894149607148e+18,0.0643456962426,-0.290995834755,0.035294943862
1.7175894151607148e+18,-0.017485680609500003,-0.590580956635,0.10210876893250001
1.7175894153607148e+18,-0.11405097444145003,-0.06787558521609999,0.10227483514740002
1.7175894155607148e+18,0.03469037420625,0.1027998484665,-0.026436781813600006
1.7175894157607148e+18,0.06525197278434999,0.35075519904499997,0.015949591784249997
1.7175894159607148e+18,-0.21644610539799997,1.18998181966,0.121537111049
1.7175894161607148e+18,-0.30215788186000003,0.15897080358799998,0.12626635777675
1.7175894163607148e+18,-0.350018708405,-0.429707659413,0.03598321740652
1.7175894165607148e+18,-0.26266995594,-0.28606538847500007,-0.1240868077197
1.7175894167607148e+18,-0.20880236542150002,-0.10741178895699999,-0.14913378040650002
1.7175894169607148e+18,0.67825421393,0.0822346653765,-0.09801697866549999
1.7175894171607148e+18,0.41813947185,-0.0790887182584,-0.007457531713600006
1.7175894173607148e+18,0.046720898715499996,-0.0997835332475,-0.07539448356
1.7175894175607148e+18,0.014544210744750003,-0.189025158442,0.141307813111
1.7175894177607148e+18,0.10164638110597499,-0.5461106792099999,0.0271978358782
1.7175894179607148e+18,-0.102616724567,-0.22479665661299997,0.039732447815
1.7175894181607148e+18,-0.1314858712195,0.0873191822345,0.07625288525950001
1.7175894183607148e+18,-0.24647990688999996,0.0862658224995,0.12479895520449998
1.7175894185607148e+18,0.11608287485842105,0.09143032799368421,-0.03337065081431579
1.7175894187607148e+18,-0.0796099568444,0.12110574036075498,-0.025965544780049997
1.7175894189607148e+18,-0.13347811554829997,0.06739777671,-0.10635755807389999
1.7175894191607148e+18,-0.10334541629800001,-0.03460057002865,-0.18264944517499998
1.7175894193607148e+18,0.009811564057515001,-0.023362732923249994,0.0015594905195000035
1.7175894195607148e+18,-0.03472141874950001,-0.05883474778450002,0.126123781509
1.7175894197607148e+18,-0.02683244103165,0.0032702241077499986,0.10608988292650001
1.7175894199607148e+18,-0.120208767427,0.038487558995650005,-0.0813493696662
1.7175894201607148e+18,-0.117681167641,-0.036447585839499995,-0.19210659602
1.7175894203607148e+18,-0.007472361881314997,0.01942596844185,0.176040383009345
1.7175894205607148e+18,-0.0002473404176499999,-0.07329340339625,0.11540803141295
1.7175894207607148e+18,0.019388320391000004,-0.0665694542908,0.057902252952599986
1.7175894209607148e+18,0.1850803232674,-0.14557243176100004,-0.456281001495
1.7175894211607148e+18,-0.09461535173900001,0.006074629261000004,-0.18688897788699996
1.7175894213607148e+18,0.04507118207455,-0.07102497742765,0.01893824851355
1.7175894215607148e+18,0.0282095002035,-0.07946045892400001,0.0415589741194
1.7175894217607148e+18,-0.05456252111800001,0.034580696049315005,-0.030065382073499996
1.7175894219607148e+18,-0.010505130933800002,0.021903674699950002,-0.09560470175575
1.7175894221607148e+18,0.343387842562,0.5206090584990001,-0.8232548937449998
1.7175894223607148e+18,1.5338580132000001,1.090610876685,-0.5226835118747999
1.7175894225607148e+18,1.228447720485,-0.2298191931175,-0.0007946477279999892
1.7175894227607148e+18,0.36369344003947374,-0.387163355551579,0.1677958226110526
1.7175894229607148e+18,-0.39601449297,-0.40751939564500006,-0.27926066284985
1.7175894231607148e+18,-1.1914508581,0.0175823804015,0.04830725080299999
1.7175894233607148e+18,0.17748570589999998,-0.938601221994,0.06943453736649999
1.7175894235607148e+18,-1.1220797121600001,0.24528392779500002,1.29043541853
1.7175894237607148e+18,-0.24349579247792003,0.50909820321,0.618906712553
1.7175894239607148e+18,0.6696346327649999,0.6174977376849999,0.0550636408322
1.7175894241607148e+18,0.11892040835675,0.45051951259,0.2541341743933
1.7175894243607148e+18,0.023508136672999995,0.07407251712050002,-0.032147781870164996
1.7175894245607148e+18,0.02050312368645,-0.09680214496935,0.0227888024747
1.7175894247607148e+18,0.01481534100645,0.06033385196229999,-0.010935043380199998
1.7175894249607148e+18,0.009236876119859998,0.033752774704009995,0.0004632852970619999
1.7175894251607148e+18,0.024234601575500003,0.12748657595149998,-0.0118742076212
1.7175894253607148e+18,-0.0042293443347500015,0.27725678626100003,-0.10841492582600001
1.7175894255607148e+18,,,
