Timestamps,Acc_X,Acc_Y,Acc_Z,Label
1.7177473560015084e+18,0.6267965698238095,4.241736406666667,8.828384137809524,1
1.7177473562015084e+18,0.6735543365449999,4.2154663924,8.85690197745,1
1.7177473564015084e+18,0.6311774597250001,4.225091377249999,8.8186789626,1
1.7177473566015084e+18,0.5905893630950001,4.29548249815,8.671235572899999,1
1.7177473568015084e+18,0.5049374771000001,4.5903842467,8.150169136150001,1
1.7177473570015084e+18,0.6636299743699999,4.6140500336,8.233710411200002,1
1.7177473572015084e+18,0.5082530822775,3.7056715164,8.7833599091,1
1.7177473574015084e+18,0.8446221705904762,1.8233369226380955,9.665350799285712,1
1.7177473576015084e+18,0.866428253145,0.12114308166845,11.000392066,1
1.7177473578015084e+18,1.0710677031750002,0.41384440613086,10.9741890559,1
1.7177473580015084e+18,1.2932506712786,2.2881043625,8.86876480865,1
1.7177473582015084e+18,-0.167516647385,3.6720140076,7.967227066100001,1
1.7177473584015084e+18,-0.9783729629825,5.974608238250001,7.688327041650001,1
1.7177473586015084e+18,-0.1609453124932499,5.02895722955,6.76923081205,1
1.7177473588015084e+18,0.4131194850395237,3.5392757525714287,9.617899475047617,1
1.7177473590015084e+18,-0.2365530852624999,2.5560247192,9.98173038485,1
1.7177473592015084e+18,0.5663622436499999,2.2007160874,10.9616376569,1
1.7177473594015084e+18,1.029124923715,2.66574655155,10.11960118105,1
1.7177473596015084e+18,0.92158106226,4.033744285550002,8.41087449645,1
1.7177473598015084e+18,0.98491436001,4.979208183350001,7.2936727295,1
1.7177473600015084e+18,1.11976144409,5.494930732649999,7.031769859300001,1
1.7177473602015084e+18,0.7210576956533336,4.858945770285714,7.064217027857144,1
1.7177473604015084e+18,0.4647011489785,3.00006882465,9.446099235199998,1
1.7177473606015084e+18,0.80822927859,2.2291120376,10.6680531695,1
1.7177473608015084e+18,1.147820594785,2.14252459725,11.359225868,1
1.7177473610015084e+18,1.5998805313,2.54273984525,10.45179787495,1
1.7177473612015084e+18,1.48344515985,3.2378718109000006,8.8953195877,1
1.7177473614015084e+18,0.8173902282850001,4.672249008149999,7.169640655500001,1
1.7177473616015084e+18,0.7608977051549999,5.2705323715,6.90586667625,1
1.7177473618015084e+18,1.5108367702380952,4.6462095859523815,7.202137363952382,1
1.7177473620015084e+18,1.0808423766650002,3.14677874,8.763608482349998,1
1.7177473622015084e+18,1.3063184967250003,2.5334067535,10.2196082154,1
1.7177473624015084e+18,1.6201184463499998,2.5493710554999995,10.849797729,1
1.7177473626015084e+18,1.2657229157,2.8480524444,10.584324784,1
1.7177473628015084e+18,0.8830137633749999,3.6350259246,9.7180312501,1
1.7177473630015084e+18,0.96050012971,4.027442390399999,8.34271373745,1
1.7177473632015084e+18,1.0123234340047618,5.374381059904762,6.960183367047618,1
1.7177473634015084e+18,0.9354646911300002,5.7606656342,6.47224839025,1
1.7177473636015084e+18,0.9764868850944998,4.98432005305,6.8501600189000005,1
1.7177473638015084e+18,0.4933515701586,3.5405424041000004,9.11155242925,1
1.7177473640015084e+18,0.5965918808039301,2.953103988650001,10.5701193235,1
1.7177473642015084e+18,1.2883109436100002,2.6666147461,10.708349373,1
1.7177473644015084e+18,1.5476765898999998,3.1836321029,10.22538620015,1
1.7177473646015084e+18,1.0201713997714283,3.649047481047619,9.373258209285712,1
1.7177473648015084e+18,1.10046656794,4.56874674225,7.989231307849998,1
1.7177473650015084e+18,1.48504682922,5.591143158,6.451441658,1
1.7177473652015084e+18,1.5232399064,5.74568179315,6.38487508405,1
1.7177473654015084e+18,1.7110169219900002,4.981932518,6.854860244700001,1
1.7177473656015084e+18,1.61276124573,3.5510131302,9.27893435625,1
1.7177473658015084e+18,2.0470980378,2.9490249709,10.403994781399998,1
1.7177473660015084e+18,1.94956728252381,3.0772223117619046,10.973537553333331,2
1.7177473662015084e+18,1.81876286315,3.6858078232,9.52154235075,2
1.7177473664015084e+18,1.6094905471999996,4.1313338471,8.45527965545,2
1.7177473666015084e+18,1.7007632446200005,5.1060094985000015,7.544536056549999,2
1.7177473668015084e+18,1.08174799348,5.86324731435,6.36807252505,2
1.7177473670015084e+18,1.408503501835,5.5502781371,6.2771815337,2
1.7177473672015084e+18,1.1003842392399998,4.63916780095,7.82528473665,2
1.7177473674015084e+18,1.7081129609,3.33168173215,10.06913362875,2
1.7177473676015084e+18,1.1608360290142856,3.483213762571428,10.290743147428572,2
1.7177473678015084e+18,0.94757450869,3.64306420905,10.31302146055,2
1.7177473680015084e+18,0.6498885498,4.068681633000001,9.236954155,2
1.7177473682015084e+18,0.654132225049,4.63194532015,8.7112997588,2
1.7177473684015084e+18,0.4427567825399999,5.320011978199999,7.636841606200001,2
1.7177473686015084e+18,0.4696333923444999,6.140500762900001,6.113489433250001,2
1.7177473688015084e+18,0.802556076025,5.831386070350001,5.961615257299999,2
1.7177473690015084e+18,0.8120185416571429,4.710932137571429,8.218124607619048,2
1.7177473692015084e+18,1.04448298649,3.82929194645,9.792613654799998,2
1.7177473694015084e+18,1.1380459214699996,3.5867438278000003,10.0477056887,2
1.7177473696015084e+18,1.26665098563,3.799129669250001,10.426844764650005,2
1.7177473698015084e+18,1.1773317260149998,4.23641532905,9.27345574945,2
1.7177473700015084e+18,1.0912981337949998,4.3957963943,8.717122650200002,2
1.7177473702015084e+18,0.4662354583700001,5.2325413742,7.5722958298,2
1.7177473704015084e+18,0.9726274109071904,6.151586281904762,6.241834324476191,2
1.7177473706015084e+18,1.621914710975,5.9073081894,5.9321041259500005,2
1.7177473708015084e+18,1.06264022829,4.8697707596,7.689891288650001,2
1.7177473710015084e+18,0.99225659171,4.153150978050001,9.6193040535,2
1.7177473712015084e+18,1.87171524805,3.3922083662999998,9.572316764899998,2
1.7177473714015084e+18,1.7241446229,3.576617385850001,10.554821136799998,2
1.7177473716015084e+18,1.24216939535,3.68719992825,9.7902111511,2
1.7177473718015084e+18,1.37874538435,4.12819786835,9.30317644495,2
1.7177473720015084e+18,0.9651501029190476,4.654499489904762,7.894183959857143,2
1.7177473722015084e+18,0.9268276519599998,5.840225189200001,6.497081749,2
1.7177473724015084e+18,1.25523722075,5.77636049645,6.4467414323,2
1.7177473726015084e+18,1.6927174759550003,5.202820678700001,7.026134079,2
1.7177473728015084e+18,0.8035739593399999,4.3635833816,8.972499092049999,2
1.7177473730015084e+18,1.5075525284800002,3.6979400941,9.511064140249998,2
1.7177473732015084e+18,1.5562088470500002,3.3853077163000003,9.8027625501,2
1.7177473734015084e+18,1.6108359637142855,3.265430930047619,10.532597351428572,2
1.7177473736015084e+18,1.4402000884749997,3.53915029905,9.66110462985,2
1.7177473738015084e+18,0.4564308471699999,3.9031483611,8.9731726913,2
1.7177473740015084e+18,-0.1946327590925,4.855310829150001,7.96209274295,2
1.7177473742015084e+18,0.047451324464,5.80231652075,6.457855819699999,2
1.7177473744015084e+18,0.414540458675,5.68373311625,6.1491602553,2
1.7177473746015084e+18,0.8682394867865,4.966222686749999,7.709582839999999,2
1.7177473748015084e+18,1.2340979656999995,3.710469752714287,9.52832146795238,2
1.7177473750015084e+18,1.6321384506750003,3.44324473565,9.8396533359,2
1.7177473752015084e+18,2.1381536864999995,3.56219487765,10.216554565349998,2
1.7177473754015084e+18,1.83228723895,3.7944668654,9.9771798482,2
1.7177473756015084e+18,1.8881735230000003,4.788063171399999,8.548565666250003,2
1.7177473758015084e+18,1.9002608870999995,5.34792144005,7.980609237849999,2
1.7177473760015084e+18,1.1053389359000003,6.120667007250001,5.5695056534,3
1.7177473762015084e+18,1.3417170278904762,6.199165910952381,5.986173117523809,3
1.7177473764015084e+18,1.123526115335,5.650801597499999,6.525163353000001,3
1.7177473766015084e+18,1.1609183577500002,4.74368795005,8.881817665100002,3
1.7177473768015084e+18,1.910200218205,4.85848423,10.01660037265,3
1.7177473770015084e+18,1.3501623230000002,4.02998709875,9.05895181275,3
1.7177473772015084e+18,1.8827024001,4.53220772545,10.0362021096,3
1.7177473774015084e+18,1.037964042725,5.2851345062,9.2424028241,3
1.7177473776015084e+18,1.2382325820800002,5.026434974649999,8.189335189900001,3
1.7177473778015084e+18,1.6018831525809525,5.923503439761904,6.129532143666665,3
1.7177473780015084e+18,1.6518599397000002,6.1113264313,5.996604995699999,3
1.7177473782015084e+18,2.2541923828,5.83357901,5.93571162405,3
1.7177473784015084e+18,1.71460945126,4.834339439399999,8.0635293042,3
1.7177473786015084e+18,1.666499496485,3.93188111115,9.5391008375,3
1.7177473788015084e+18,2.44132573696,3.6729121398500006,9.3815384899,3
1.7177473790015084e+18,2.28944407645,3.8771474304,9.677727561899998,3
1.7177473792015084e+18,2.1619613212380955,4.082125462190477,9.67652755738095,3
1.7177473794015084e+18,1.99276851645,4.411970260550001,8.834598358200001,3
1.7177473796015084e+18,1.6517626419249996,5.200118797349999,7.793887527399998,3
1.7177473798015084e+18,1.8650017090349995,6.276844734199999,6.0789861833000005,3
1.7177473800015084e+18,1.78702885444,6.342011718699999,5.7736286772500005,3
1.7177473802015084e+18,1.812872612,5.93595861055,6.316901435899999,3
1.7177473804015084e+18,1.96128897845,4.908465293950001,8.405485702499998,3
1.7177473806015084e+18,2.231652112666666,4.351116093238096,9.369530247476188,3
1.7177473808015084e+18,2.03772752385,4.3017394867,9.34750675975,3
1.7177473810015084e+18,2.2550680618000003,4.45094171905,9.95848372555,3
1.7177473812015084e+18,1.84586400595,4.585070297200001,8.599152969349998,3
1.7177473814015084e+18,1.7626071394499998,5.65795671845,7.642095680200001,3
1.7177473816015084e+18,1.54064122016,6.286125434850001,5.64186518095,3
1.7177473818015084e+18,1.5838039626750002,6.408480995149999,6.29158907325,3
1.7177473820015084e+18,1.6019312667,6.180901748649999,5.99390311435,3
1.7177473822015084e+18,2.2483887373333333,5.191760820619048,8.243429129428572,3
1.7177473824015084e+18,1.96036090865,4.4351645279500005,8.379597038300002,3
1.7177473826015084e+18,1.70706513975,4.015302635149999,9.6773234026,3
1.7177473828015084e+18,1.8287021943,3.74324338535,9.5431499176,3
1.7177473830015084e+18,2.0468660202000004,4.2897269669,9.807417869749996,3
1.7177473832015084e+18,1.7733547897000002,4.51327958675,8.735130203199999,3
1.7177473834015084e+18,1.378633117725,4.8266304703,8.960112350400001,3
1.7177473836015084e+18,0.7083983067333334,5.050461796380953,7.763812212285716,3
1.7177473838015084e+18,0.8383915557735,6.327319770800001,6.054871330249999,3
1.7177473840015084e+18,1.0593770141249998,5.97251259605,7.026126594600001,3
1.7177473842015084e+18,1.25329875181,6.2160561447500005,7.868065773049999,3
1.7177473844015084e+18,1.054414833035,6.1605066604,7.622134689350001,3
1.7177473846015084e+18,1.1787612533650005,6.13457308955,7.552439620899999,3
1.7177473848015084e+18,1.1937151566,6.1091484605,7.510818672200001,3
1.7177473850015084e+18,1.2508631026190475,6.093079376238096,7.606075940761906,3
1.7177473852015084e+18,1.208002945,6.062490486149999,7.5719440613,3
1.7177473854015084e+18,1.25558898935,6.063485916049999,7.625779609649999,3
1.7177473856015084e+18,1.1502541879615389,6.043923903230769,7.571301551153846,3
1.7177473858015084e+18,,,,3
