Timestamps,Gyro_X,Gyro_Y,Gyro_Z
1.7177051201576077e+18,0.527927983181,-0.9257395245790001,0.017364024185500003
1.7177051203576077e+18,0.6103881810854999,-1.3277335966294999,-0.533923204225
1.7177051205576077e+18,-2.10936027024,-0.798562117265,3.3398847400999996
1.7177051207576077e+18,1.7646800346220002,-0.8322281844355001,5.30161676395
1.7177051209576077e+18,-1.4683076750805,-1.43107058701,-1.6738131955050002
1.7177051211576077e+18,-3.483752237225,0.165241330065,-5.185888934199999
1.7177051213576077e+18,1.1550330188267501,1.9969215632000001,-3.4814902068499998
1.7177051215576077e+18,0.28343579582199996,0.179144112116,-0.78641007344825
1.7177051217576077e+18,0.1946046575445,0.5770504027750001,0.213805406884
1.7177051219576077e+18,0.13128685519894737,0.21098031260526315,0.24112322769631578
1.7177051221576077e+18,0.1643611811095,1.5813043593650002,-0.6950497728330001
1.7177051223576077e+18,0.0213677319646,3.2804433464500002,-0.3849692560675
1.7177051225576077e+18,0.11824557319995,0.3833372234415,0.27209374905425
1.7177051227576077e+18,-0.02534361947837,0.32559469214750003,-0.07944463366535
1.7177051229576077e+18,-0.04588743811590001,0.07876701486715003,-0.025445060993000007
1.7177051231576077e+18,0.024834022693499998,-0.3172951094698,0.0531458112911
1.7177051233576077e+18,-1.0202443342504999,-1.7150475859499998,0.49998352717985
1.7177051235576077e+18,-1.2461926648835,-3.8653387545499998,0.63958567987
1.7177051237576077e+18,0.3201620122110526,-1.392256457036842,-1.5171569742368423
1.7177051239576077e+18,0.07182057252755,0.27936811214659996,-0.026482572133000003
1.7177051241576077e+18,0.18219398520950003,2.3777749359350002,0.430470238635
1.7177051243576077e+18,-0.3020343062645,3.4759408295499994,-1.2247131360135
1.7177051245576077e+18,1.8063684702500002,0.56123418755525,-0.010396296229500024
1.7177051247576077e+18,-0.6250452037809999,1.1774884871449998,1.5282161205549998
1.7177051249576077e+18,-0.20906793400999998,-0.12706780873499995,0.09524739878385
1.7177051251576077e+18,0.0365606807216,0.45934457110000004,0.14791606655908002
1.7177051253576077e+18,-0.8677592314470001,0.06740537696849996,-0.08999264407749999
1.7177051255576077e+18,-0.1404914858794737,-0.44845675934684215,0.035241985106842115
1.7177051257576077e+18,-0.482496492565,-0.030235546272000015,0.39647894828700014
1.7177051259576077e+18,-0.41721044682780006,0.16168985212999998,0.14625262424832997
1.7177051261576077e+18,-0.0822267886238,0.05096933946295,0.028125446028145002
1.7177051263576077e+18,0.022175677979399993,-0.0358348604807,-0.035517505222099996
1.7177051265576077e+18,-0.14687863893689998,0.0097324374406,0.1713858701889
1.7177051267576077e+18,-0.04216084004575,-0.0034542211790499996,-0.25467958916149996
1.7177051269576077e+18,-0.01981619573034999,-0.05599384386925001,-0.07408237748259998
1.7177051271576077e+18,-0.282332032915,0.05119544493095,0.018738482031299998
1.7177051273576077e+18,-0.23586714043999998,0.09310426414199999,0.058474641668500006
1.7177051275576077e+18,-0.2541636487421053,0.013920320050947366,-0.06249505626736842
1.7177051277576077e+18,-0.5473858058499999,-0.11260477788800001,-0.0930999366625
1.7177051279576077e+18,-1.2554475396849998,-0.02807258935350001,-0.22067189346349997
1.7177051281576077e+18,-0.9766641050550001,0.08343816453510003,0.06472859889675
1.7177051283576077e+18,-0.28610583021,0.044203181937499995,0.18007029667500002
1.7177051285576077e+18,-0.31494680494500005,-0.7107443302825,0.19624589061109998
1.7177051287576077e+18,-0.1188342375715,0.04995105384255,0.1060103394937
1.7177051289576077e+18,0.0025563354829499984,0.13230073526150005,-0.04812963159665
1.7177051291576077e+18,-0.09818673913365,-0.09451509808600005,0.015656239591350003
1.7177051293576077e+18,-0.8330088194631579,-0.1380245759273684,-0.34905635319847367
1.7177051295576077e+18,-0.51648330613,0.1664590960375,-0.15392011893045
1.7177051297576077e+18,0.21387404226419998,-0.10684507427749997,-0.021640254303765004
1.7177051299576077e+18,0.24124678526789997,0.049319677778,-0.017289213836
1.7177051301576077e+18,-0.2374206095865,0.01144378633305,-0.07529130810800001
1.7177051303576077e+18,-0.5616695776549999,0.055879831818445004,-0.04794276319549999
1.7177051305576077e+18,-0.33064365387999994,0.0012188523197499998,0.039195966278349995
1.7177051307576077e+18,-0.1816553654605,0.12843017280949998,0.052162467061100004
1.7177051309576077e+18,0.1261156702675,0.0695938688217,0.11006757096085
1.7177051311576077e+18,0.27500180115263156,0.11325028946112631,0.06401868517421053
1.7177051313576077e+18,0.410100983075,-0.06817053607095,0.053301782721
1.7177051315576077e+18,0.3473400227665,-0.04030416295715,0.01370374774425
1.7177051317576077e+18,-0.17332705614100002,-0.183761629463,-0.049061060534
1.7177051319576077e+18,-0.30580310895999996,-0.072995757959,-0.06602872140190999
1.7177051321576077e+18,-0.359808935225,0.018004362772650002,-0.022222543203049998
1.7177051323576077e+18,-0.1159115846795,-0.04631746329415,-0.013513616433999998
1.7177051325576077e+18,0.131725831231,0.040523678673749994,0.0162261243946
1.7177051327576077e+18,0.29931478948,0.032143373177950005,0.0122019625267
1.7177051329576077e+18,0.38665586710000005,0.05958312637831579,0.030212883641105262
1.7177051331576077e+18,0.035561563818000005,0.0405193519985,0.05484115029750001
1.7177051333576077e+18,-0.1436874737977,-0.06458080913799999,-0.046733431053
1.7177051335576077e+18,-0.29226730615,-0.027716863242100005,-0.06804236611299999
1.7177051337576077e+18,-0.29867969976,0.06242772029125,0.016473118122699998
1.7177051339576077e+18,0.0032376083544999996,-0.06861541454977998,-0.0309892491865
1.7177051341576077e+18,0.119196877624,0.11623874842345001,0.12564449831850003
1.7177051343576077e+18,0.32803687006000004,0.00042419592125000005,-0.004107344336855
1.7177051345576077e+18,0.41109233200999995,-0.0113461471635,-0.016359640750950002
1.7177051347576077e+18,-0.04446785645450001,0.020574759086549998,0.0186657356326
1.7177051349576077e+18,-0.1737831274073684,-0.10726346449,-0.028620074306894734
1.7177051351576077e+18,-0.243004777285,-0.09243075195499997,-0.06741313452237
1.7177051353576077e+18,-0.30696424507500003,0.09814284834800001,0.002817199214459999
1.7177051355576077e+18,-0.021633149453200003,0.058225792808775004,0.022843073232589998
1.7177051357576077e+18,0.1419669298425,0.0180562082185,-0.0013134951202649979
1.7177051359576077e+18,0.26888695954999997,0.062783970651585,0.039749901195000006
1.7177051361576077e+18,0.44906782358499997,-0.07798122614799999,-0.0258272524022
1.7177051363576077e+18,-0.0062040947367500016,0.165031498663,0.07359991327548998
1.7177051365576077e+18,-0.14002162012500002,-0.05755867213485,0.006573381344200001
1.7177051367576077e+18,-0.2548341923631579,-0.12843916682526318,-0.10906663203842104
1.7177051369576077e+18,-0.31827225834999995,-0.07854020716599999,-0.10022547908250001
1.7177051371576077e+18,-0.21938920542,-0.0658858850595,0.008527149812499999
1.7177051373576077e+18,-0.02890352602055001,-0.0071482049288000005,0.021633108589
1.7177051375576077e+18,0.1470286513685,0.11154774353050001,0.073486315712815
1.7177051377576077e+18,0.25595276579500004,0.0055530448797999985,0.00723634031655
1.7177051379576077e+18,0.34197799787500005,0.09790773386890002,0.05907124578909999
1.7177051381576077e+18,0.29334051138862,0.13760543233259998,0.09808127666355
1.7177051383576077e+18,0.50055304542,-0.1196364702202,0.0042696115970700015
1.7177051385576077e+18,-0.061840593103105274,-0.07381712292205261,-0.0938067057374737
1.7177051387576077e+18,-0.4377731516850001,-0.3218797031865,0.024190437237550003
1.7177051389576077e+18,-0.6194124489999999,-0.043438426401000006,0.024256904606999998
1.7177051391576077e+18,-0.6621077507700001,-0.07382687572499999,0.08617237992749999
1.7177051393576077e+18,-0.21943995245250006,0.0159375023399,0.03390291587015
1.7177051395576077e+18,0.0094815248157,0.008953264075945003,0.1391411904215
1.7177051397576077e+18,-0.0518115072505,0.023005447141899997,0.0990820432975
1.7177051399576077e+18,0.018419243092550004,-0.0438115135755,-0.033102227260815
1.7177051401576077e+18,0.049078163038,-0.059864802473,-0.14905014074499995
1.7177051403576077e+18,0.00548884157652,-0.0836462151,-0.18837009604736843
1.7177051405576077e+18,0.0345723698845,0.020326878967399997,-0.1473333962275
1.7177051407576077e+18,0.05018434953934999,-0.000811679032499999,0.05397087427219999
1.7177051409576077e+18,0.00063644505585,0.0368925035005,0.0682345580805
1.7177051411576077e+18,0.004039226373499999,0.011753685772299998,0.015093143376992451
1.7177051413576077e+18,-0.003499587838255,-0.022343326593500003,-0.0201609302541
1.7177051415576077e+18,-0.00042962211088500024,-0.008940543607549999,0.002706499164924
1.7177051417576077e+18,-0.00041247018362500015,0.008423087252015,0.02346244053895
1.7177051419576077e+18,-0.0013395568926999999,0.010439487401399999,0.005926379793299999
1.7177051421576077e+18,-0.0011847265260526319,-0.008928879642473683,0.0024104939874
1.7177051423576077e+18,0.005691468919345,-0.011138207872900001,0.0083224256523
1.7177051425576077e+18,-0.005568202133561,-0.00267716254733,0.020008883928750002
1.7177051427576077e+18,4.551444139500006e-05,0.007358043992225,0.008479748642644998
1.7177051429576077e+18,-0.010026162351,0.0087654648586,0.0007134697634000001
1.7177051431576077e+18,0.0035490576119,0.01486340761205,-0.006475365884035
1.7177051433576077e+18,-0.00425229784393,0.011498438002609999,-0.013345849304800001
1.7177051435576077e+18,0.0043205598144,-0.0010888334975749999,-0.013714174228
1.7177051437576077e+18,0.013201070489694999,-0.005254976754165,0.009175159177349998
1.7177051439576077e+18,0.01240740953935,0.014880524144949999,-0.0009375753817025004
1.7177051441576077e+18,0.01606125584898421,0.004914985111263159,-0.008782076845210526
1.7177051443576077e+18,0.0236664884602,-0.0115960593974,-0.010542745597650002
1.7177051445576077e+18,0.007381492842090001,-0.011183889864934998,0.0098257402893
1.7177051447576077e+18,-0.07924072835749998,0.02633043546165,0.012587920856749998
1.7177051449576077e+18,-0.12236354314000002,0.020495613147399998,0.010937468135799999
1.7177051451576077e+18,-0.066058360877,-0.0331976166,-0.03840184434049
1.7177051453576077e+18,-0.0283682496295,-0.0038391439010050004,0.007352824672699999
1.7177051455576077e+18,-0.019037424167699997,-0.0017047031724925,-0.001876954396744
1.7177051457576077e+18,-0.019255910488000006,-0.0015466168579955002,-2.5109516102500014e-05
1.7177051459576077e+18,-0.015685679195421052,0.0010362830484408525,0.0014156116859263157
1.7177051461576077e+18,-0.009803884540300001,-0.001651086320665,-0.0022145921598199997
1.7177051463576077e+18,-0.016763973167599998,-0.0044014943646595,-0.0003161720699
1.7177051465576077e+18,-0.0033615061591434994,-0.0013959728734235,-0.00208870775535
1.7177051467576077e+18,0.007851941260684999,-0.0024585405423100002,0.0011233787867099998
1.7177051469576077e+18,0.0231181841345,0.0012153533752704998,-0.0029133723119705
1.7177051471576077e+18,0.0298995359805,0.0034875960904499994,-0.00267406932541
1.7177051473576077e+18,0.0256938229325,0.0035783467842649998,-0.0014923153561700003
1.7177051475576077e+18,0.019912680565500003,0.000756267737605,-0.005588900647099999
1.7177051477576077e+18,0.009220971974963158,0.004338965861578947,-0.0009238454635925263
1.7177051479576077e+18,-0.0054565890111,-0.00050286403572,0.0005865016602200002
1.7177051481576077e+18,-0.011777658387849999,-0.0024537160207475,-0.001551524130555
1.7177051483576077e+18,-0.01477749091595,-0.0020832496054245,0.0014909572200199996
1.7177051485576077e+18,-0.018063296285,-0.0028032629633500004,0.0028254011646914995
1.7177051487576077e+18,-0.014015890961749999,-0.0034594363823450005,-0.00103354115272
1.7177051489576077e+18,-0.020919727114399995,-0.004962459754034999,-0.0016905459922549998
1.7177051491576077e+18,0.010175022825425001,0.006603294913695,-0.0068538620133485
1.7177051493576077e+18,-0.017133336280650002,-0.00895827887525,-0.006765575451064999
1.7177051495576077e+18,-0.06108460712578947,-0.006296748326,0.007834900121848948
1.7177051497576077e+18,-0.0216680387024,0.016740894923000006,-0.003762478102125
1.7177051499576077e+18,0.0008569527654500003,0.0102608019899,-0.0029820107620850004
1.7177051501576077e+18,0.01393299342575,-0.0013013902499,0.0008460991782125
1.7177051503576077e+18,0.017282468592499996,0.00552589196603,0.0012641756212975002
1.7177051505576077e+18,0.019595740549,0.004944286518849999,-0.00190577865584
1.7177051507576077e+18,0.01635588751035,0.0033350501324700002,-0.0025341158033694994
1.7177051509576077e+18,5.099569700000946e-07,0.008164252614550001,-0.0002195507526550001
1.7177051511576077e+18,-0.013239426162515,-0.006679704683365001,-0.0008624787908700002
1.7177051513576077e+18,-0.0220595690895,-0.004076808958785,0.000543696968845
1.7177051515576077e+18,-0.024017166934736843,-0.0032934306654736844,0.001483111593345263
1.7177051517576077e+18,-0.01152432281485,-0.0020859651093050003,0.00024047340279499994
1.7177051519576077e+18,-0.008083264645849998,-0.0019964684790764998,-0.0008206444327395999
1.7177051521576077e+18,-0.008296446845765002,0.0005701952380749999,0.00048975412495
1.7177051523576077e+18,-0.0013084770791585002,0.00036991481611999997,-0.0006549503305524999
1.7177051525576077e+18,-0.0012560077958149998,-0.00046981178170500004,-0.0003891403553734999
1.7177051527576077e+18,-0.0013949117421285001,-0.00054400707592,-0.0013244259520949996
1.7177051529576077e+18,0.006418384166195,0.0023631583316000002,-2.385618870999989e-05
1.7177051531576077e+18,0.01227730917685,0.0022637531103250003,-0.000958235200959
1.7177051533576077e+18,0.02329953622789474,0.003914266499894737,-0.00025485264827
1.7177051535576077e+18,0.019545808573200003,0.00489999243314,-0.0017977122217000003
1.7177051537576077e+18,0.024244699814,0.00686314350465,-0.0012590049998920003
1.7177051539576077e+18,0.020719256484999997,0.00239742066478,-0.00015203894584000003
1.7177051541576077e+18,0.015556773613479999,0.0029463410436049997,-0.0013026175321915
1.7177051543576077e+18,-0.010051696781265,-0.001195623219195,0.0012194030684919998
1.7177051545576077e+18,-0.017025410034199998,-0.00303099371952,0.0007374998996999999
1.7177051547576077e+18,-0.026625392120499997,-0.00588207787375,0.0009493968215765
1.7177051549576077e+18,-0.034597727469,-0.00743318902085,-0.0010244246456250002
1.7177051551576077e+18,-0.018870792547157893,-0.003450606753526316,0.000520355104868421
1.7177051553576077e+18,-0.010894584724900002,-0.0029611809353999995,0.0002564030000975
1.7177051555576077e+18,-0.00473940819657,-0.00120778724669,-0.0004971464747195
1.7177051557576077e+18,-0.00850258138985,-0.000468319549627,0.00029034009201500015
1.7177051559576077e+18,0.0013737381930845,-0.0001338924718195,0.00016124170508400004
1.7177051561576077e+18,0.01351145044915,0.0028004109045599995,-0.001388392702155
1.7177051563576077e+18,0.01904161987,0.00347888463895,-0.0016925893491099998
1.7177051565576077e+18,0.017468981817749998,0.00489941231805,0.0009006489418274248
1.7177051567576077e+18,0.0259039150555,0.005980743956750001,-0.00037651526509999996
1.7177051569576077e+18,0.026497124839999997,0.005601432762631579,-0.0017156993455105262
1.7177051571576077e+18,0.020785075798,0.003418565288250001,-0.0008020117878899998
1.7177051573576077e+18,0.0006189143401300005,0.0006770933862325,-0.0005511821830349997
1.7177051575576077e+18,-0.0192900149151,-0.00347267081375,0.000728924106775
1.7177051577576077e+18,-0.030301116966500008,-0.00781140825725,0.000424811977406
1.7177051579576077e+18,-0.03300480526,-0.005842005688415,1.3423571354500062e-05
1.7177051581576077e+18,-0.022485900950399998,-0.0043831423624,0.0009163889684740001
1.7177051583576077e+18,-0.0089027668115,-0.002124183339725,0.0013859468045249999
1.7177051585576077e+18,-0.00253390788564,-0.0022082686248950005,-0.000668802007597
1.7177051587576077e+18,-0.005791633593600001,-0.0010333373008275,0.0009937274502534999
1.7177051589576077e+18,-0.0002742977384073684,0.0005273256989815789,0.00040888185866315793
1.7177051591576077e+18,0.0020676804022349998,-0.0010812199936705,-0.0010754091548999998
1.7177051593576077e+18,0.0115125635285,0.002786475882905,-0.0016918520094399998
1.7177051595576077e+18,0.018633919907099998,0.003966915910175,-0.00077460679457
1.7177051597576077e+18,0.020286628977000003,0.004396107292249999,-0.00048865678247
1.7177051599576077e+18,0.0245549359355,0.003329997917135,-0.001683841110295
1.7177051601576077e+18,0.017700196663,0.004836042693855,-0.00047199610865500017
1.7177051603576077e+18,0.019176396495499997,0.0055300179461400005,-0.0006435780203899999
1.7177051605576077e+18,0.005811204941775,0.0008592051512069998,-0.0003008249680990001
1.7177051607576077e+18,-0.01532179649005263,-0.003161199317305263,4.0426678788947314e-05
1.7177051609576077e+18,-0.0214730451345,-0.00409247330395,0.00023438844370000006
1.7177051611576077e+18,-0.027334316633,-0.0058501259192,0.001179584965715
1.7177051613576077e+18,-0.024798536487499998,-0.00582631283905,-0.00035815819864900005
1.7177051615576077e+18,-0.020167937922499997,-0.003416611673322,0.0008363201050000003
1.7177051617576077e+18,-0.005716594797185,-0.001002550259005,0.00053865605744
1.7177051619576077e+18,-0.0031469733308549996,-0.0009706044045719999,-0.0009241741383768997
1.7177051621576077e+18,-0.00270669516307,0.00020842072840300004,3.705110861599995e-05
1.7177051623576077e+18,-0.0015934510185500004,-0.0007713540660674999,2.7618394321500073e-05
1.7177051625576077e+18,0.0068000075895789484,0.0025012916303118415,6.284694622368419e-05
1.7177051627576077e+18,0.016083416947500002,0.0038287653326049996,-0.0011337200062789998
1.7177051629576077e+18,0.021801024395499996,0.00455338460155,-0.00151492714648
1.7177051631576077e+18,0.0200259010552,0.0035517028183800004,-0.0019583287416394994
1.7177051633576077e+18,0.0232773081865,0.006973340560299998,-0.00039148640362
1.7177051635576077e+18,0.0246167824605,0.005218689760549999,-0.0004023407119769999
1.7177051637576077e+18,0.017590919089999997,0.0029629572091350006,-0.0007923162891499998
1.7177051639576077e+18,0.0007800599388950002,-0.00027496114200000003,-0.0012750904542205
1.7177051641576077e+18,-0.006947622384000001,-0.0018587350379535,0.0007635781075099999
1.7177051643576077e+18,-0.004771273344052631,-0.0007517194424904737,0.0009892602867905265
1.7177051645576077e+18,-0.014524892671949998,-0.0030957365932675,0.000159937911575
1.7177051647576077e+18,-0.0315463310115,-0.0059811118874,-8.043900602850007e-05
1.7177051649576077e+18,-0.030442126559999994,-0.0058706601616,0.00111615314385
1.7177051651576077e+18,-0.021205199788999998,-0.0057451328844,0.00033866968003455015
1.7177051653576077e+18,-0.0092725823864,-0.0028495783830050003,5.138993727500002e-05
1.7177051655576077e+18,-0.010343174775849999,-0.0006132552981794999,0.000805626949385
1.7177051657576077e+18,-0.0011873945565210001,-0.000482699862927,-0.0003515163551950001
1.7177051659576077e+18,0.0008333431571500001,-0.0006979390512519999,-0.00057719374314
1.7177051661576077e+18,0.0105751992211,0.0030468793294755,-0.0013500420143905
1.7177051663576077e+18,0.013372934080736842,0.0040392422663000005,0.0005033207738526315
1.7177051665576077e+18,0.021223615808,0.004820538160799999,-0.0005106080323850001
1.7177051667576077e+18,0.024324800167499997,0.0039342911449,-0.0021164008766590007
1.7177051669576077e+18,0.021831713989000003,0.004595717810900001,-0.0006312710581985
1.7177051671576077e+18,0.015444762540149998,0.004422658204500001,0.000252555555225
1.7177051673576077e+18,0.01917381142285,0.005681367113699999,-0.0007377137198199999
1.7177051675576077e+18,0.0033544564095299998,-8.057567460000001e-05,-0.0011845251895749999
1.7177051677576077e+18,-0.00624077693825,-0.0017476121313650002,-0.0005421753041795
1.7177051679576077e+18,-0.01117152608915,-0.0017049229529189996,3.8001197399999915e-05
1.7177051681576077e+18,-0.004725793168136841,-0.0008527316754073684,0.0008652385715394737
1.7177051683576077e+18,-0.015622874233300003,-0.002793211920712,-0.000737776001945
1.7177051685576077e+18,0.05341014927035,0.025874450989249998,-0.005140620143689999
1.7177051687576077e+18,-0.026175003453,-0.01021205505275,0.025332330818300004
1.7177051689576077e+18,0.038433226943499994,-0.004869805192515,0.0558509903025
1.7177051691576077e+18,-0.042772951136150004,-0.0453552699169265,0.05507201289160395
1.7177051693576077e+18,-0.11093471339722949,-0.1275828616872,0.05268254568649999
1.7177051695576077e+18,0.0368623373091,0.0033931418580499992,-0.082098493536635
1.7177051697576077e+18,0.020195777289864998,-0.0490554382545,-0.07148353764400002
1.7177051699576077e+18,0.015480659774263158,-0.051654786557789475,-0.018588669819521054
1.7177051701576077e+18,0.03665876314,-0.0222555223623,-0.04125231385730001
1.7177051703576077e+18,0.026181904590499995,-0.07783071026249999,-0.026797852595257
1.7177051705576077e+18,0.009414676825149994,-0.02008887988195,-0.014389981189950002
1.7177051707576077e+18,0.116794006526,0.09195439749920001,-0.010634257244
1.7177051709576077e+18,0.8840041070849999,0.359460560245,0.004694890180400001
1.7177051711576077e+18,0.9014377601,0.343186756505,0.11305584656455
1.7177051713576077e+18,-0.3638545031826,0.10527905826175002,-0.0340734530315
1.7177051715576077e+18,-0.1485542655975,-0.3788894958899999,-0.0410818117118
1.7177051717576077e+18,0.046782600816315786,-0.13304423331926318,0.0017298182599999991
1.7177051719576077e+18,-0.045810428657250005,0.09543511094995001,7.168371749999777e-05
1.7177051721576077e+18,-0.38357631638,-0.0710505408265,-0.030617583566700003
1.7177051723576077e+18,-0.27260470093499994,0.139756212608,0.02512220498125
1.7177051725576077e+18,-0.003944735627040001,0.162117817165,0.09078864977300001
1.7177051727576077e+18,0.091943387694,-0.0930812920318,0.0367664923845
1.7177051729576077e+18,0.13162921146599998,-0.1699377506965,-0.050245309521500005
1.7177051731576077e+18,0.19494386837,-0.09874772720265,-0.028124634735947
1.7177051733576077e+18,0.33531734859705,0.12256714238750002,-0.015116724228749994
1.7177051735576077e+18,-0.036314429942500004,-0.03593022656,-0.044989446995500004
1.7177051737576077e+18,-0.13156548338526314,-0.19838155963157897,-0.0708766452451158
1.7177051739576077e+18,-0.14111948200500002,-0.12933683534399998,-0.01606297260418
1.7177051741576077e+18,-0.28010167628,0.09544962942409999,0.04440768619635
1.7177051743576077e+18,0.012054798659699998,0.0707181136025,0.010918067185250001
1.7177051745576077e+18,0.06924243959785,0.07963617965400001,0.06408378547155
1.7177051747576077e+18,0.16286796778499998,0.13563276007450004,0.02925115791205
1.7177051749576077e+18,0.18063650019,0.16893311627500002,0.06913024634005
1.7177051751576077e+18,-0.17090368773844997,-0.00832723919435,0.029397854301849997
1.7177051753576077e+18,0.055051149390575,-0.059596904642150006,-0.03829370490225
1.7177051755576077e+18,-0.08119885515061052,-0.22929201942105265,-0.08814017932994737
1.7177051757576077e+18,-0.097097086587,-0.022830032561249998,-0.033420741552
1.7177051759576077e+18,-0.1424997566365,0.00951046947105,0.04633857124165
1.7177051761576077e+18,0.07924587346425001,0.12957705687950002,0.05320477229285
1.7177051763576077e+18,-0.026981993529000003,-0.0231138166687,0.021515353583045002
1.7177051765576077e+18,-0.038181252850200006,-0.00392716024015,-0.016568039730149996
1.7177051767576077e+18,0.27804053463000006,0.053118789429649996,0.01658173296505
1.7177051769576077e+18,0.0034866639419999903,0.0373944138998,0.02897443245145
1.7177051771576077e+18,-0.0488211127228,-0.035069638933000004,-0.0086560185775
1.7177051773576077e+18,-0.22359458554210523,-0.18867222886315788,-0.08540930586910526
1.7177051775576077e+18,-0.17452245316499998,-0.02980329811450001,0.01270145377745
1.7177051777576077e+18,-0.103059571983,-0.015681649925000003,-0.006668871964899998
1.7177051779576077e+18,0.03507909052734999,-0.016011943202949998,0.007899875665799996
1.7177051781576077e+18,0.026446380279750003,0.0237338590137,-0.004661891230750001
1.7177051783576077e+18,0.025994086175500003,0.08279172525799999,0.0173863782777
1.7177051785576077e+18,0.22659456505999995,0.0869120519634,-0.009237129637899999
1.7177051787576077e+18,0.13260600784649998,0.15915316790200001,0.10870770550050002
1.7177051789576077e+18,-0.018848609622850003,0.029607013295000005,-0.0038624017015500044
1.7177051791576077e+18,-0.017918789973473685,-0.05783820297410527,-0.0373636116998421
1.7177051793576077e+18,-0.0404654525215,-0.19445505812000002,-0.07214009919635
1.7177051795576077e+18,-0.11580829004750001,-0.045828774530670004,-0.0447304830405
1.7177051797576077e+18,-0.11826546080949998,0.015166813205465004,0.03031461485695
1.7177051799576077e+18,-0.022537894798085,-0.007111055714945,0.011575995525849998
1.7177051801576077e+18,-0.05239646502201001,0.004668961802304998,-0.009053288284
1.7177051803576077e+18,0.047151534328250005,-0.04299788940745,-0.06459433894234999
1.7177051805576077e+18,0.113678962549,0.059762115453999995,0.028561154193249998
1.7177051807576077e+18,0.222277697085,0.08815684735245,0.06922617196349999
1.7177051809576077e+18,0.0226283261094,0.068355430852,0.0699395414896
1.7177051811576077e+18,0.2834379022105263,0.0395918906131579,-0.017245880985236845
1.7177051813576077e+18,0.184232465743,-0.0729468702785,-0.056054743447349994
1.7177051815576077e+18,-0.10062556872700001,-0.049544731151499995,-0.011329231911949999
1.7177051817576077e+18,-0.1901626102655,-0.11246882629900001,0.005754288636854999
1.7177051819576077e+18,-0.4044956430900001,-0.134051046709,0.0149796089515
1.7177051821576077e+18,-0.54278558194,-0.088389734353,0.0749974230971
1.7177051823576077e+18,-0.0344957691811,-0.03052546635711,0.10113533270299999
1.7177051825576077e+18,-0.0179084841922,0.13951047061500002,0.06780002359600001
1.7177051827576077e+18,-0.03992224580105,-0.004887322148949999,0.078566753822
1.7177051829576077e+18,-0.00041103105721052697,-0.052537479799631574,-0.07480106690142105
1.7177051831576077e+18,0.0544992996375,0.013345304340349997,-0.11108059100300001
1.7177051833576077e+18,-0.00942902001495,-0.002648475113265001,-0.02786498932425
1.7177051835576077e+18,-0.035110941436499996,0.015571526741099998,0.027872191928
1.7177051837576077e+18,-0.05652128011049999,0.018219396017850005,0.05454805418750001
1.7177051839576077e+18,-0.013204128846265002,0.01151481256855,0.018946360332150004
1.7177051841576077e+18,-0.023560842079999998,0.006786325748340001,-0.0233126680357
1.7177051843576077e+18,-0.00556613801755,-0.01263994263745,-0.00686744968337
1.7177051845576077e+18,0.0047862970927099995,-0.004105394706168499,-0.001891911228435001
1.7177051847576077e+18,0.005254323527278948,0.006195278568578369,-0.009162127210931579
1.7177051849576077e+18,0.0078239439516,-0.0038888448039049997,-0.02455793744825
1.7177051851576077e+18,0.07222670359025,0.0496705046969885,0.01471090281945
1.7177051853576077e+18,-0.03152318448975001,0.050613184555,0.0022270927669000005
1.7177051855576077e+18,0.07112220755090001,-0.022263832878600003,0.015792019897149998
1.7177051857576077e+18,-0.019688571640584997,0.008821271691869997,-0.0532801761305
1.7177051859576077e+18,0.051546758554250005,-0.0047531760032750005,-0.124898470565
1.7177051861576077e+18,-0.091939227844,-0.00877311783255,0.012362008727599998
1.7177051863576077e+18,-0.1375283941635,-0.009662250516685,0.05804655812549999
1.7177051865576077e+18,-0.05987429579578947,0.00343807776278421,0.030325090536842098
1.7177051867576077e+18,-0.07480823677,-0.02754639461665,-0.012827701028099997
1.7177051869576077e+18,-0.0499712571505,-0.01740142945295,-0.029406924266500007
1.7177051871576077e+18,-0.0288618237705,0.001555142106385,-0.015918284654000005
1.7177051873576077e+18,0.008903992399555,0.005406702746200001,-0.0038478774368349996
1.7177051875576077e+18,0.020078897430000003,0.0013074715563449997,0.000840234570195
1.7177051877576077e+18,0.0266701334155,0.0011196641425434998,-0.0019493088358199999
1.7177051879576077e+18,0.031646182573999995,0.001975081424355,-0.0019505073548949999
1.7177051881576077e+18,0.030080397428,0.004080339643409999,-0.005806033511195
1.7177051883576077e+18,0.01465505924026316,0.0028635636339473685,-0.0014023716979052634
1.7177051885576077e+18,-0.032258870150049995,-0.0041779028717300005,0.00063242396562
1.7177051887576077e+18,-0.045984558202500005,-0.004707987909199999,0.0013048359774844999
1.7177051889576077e+18,-0.03840409508,-0.0035589497071599994,0.0014509248197250003
1.7177051891576077e+18,-0.020785218291000003,-0.0018316422880749997,0.0009735080879250001
1.7177051893576077e+18,-0.01248180910485,0.0004239563190495,-0.001843471848475
1.7177051895576077e+18,-0.007812005712149998,0.001025696835203,0.0002098068595339998
1.7177051897576077e+18,-0.0033898514055865,-0.00026489266894,0.0009894117480405001
1.7177051899576077e+18,0.012766175187802,0.0007635831570655,-0.002465471031622
1.7177051901576077e+18,0.021107100043000003,0.0018057238630399999,-0.000539333792465
1.7177051903576077e+18,0.027494798562105262,0.0036421867368578954,0.0005812575599652631
1.7177051905576077e+18,0.027072390541999995,0.0014241141994965,-0.002271372091425
1.7177051907576077e+18,0.0251299678335,0.0024234155833499998,-0.001741665462125
1.7177051909576077e+18,0.021678944470669998,0.0037463663204225007,-0.0014931292271509998
1.7177051911576077e+18,-0.016764032817949998,-0.0017917099700169997,0.0007326507009584
1.7177051913576077e+18,-0.032937849127,-0.002322477067417,0.001339319197045
1.7177051915576077e+18,-0.028691380656500003,-0.0035377935390599998,0.0013898539589729999
1.7177051917576077e+18,-0.028896405362499995,-0.0008171117719409999,0.0013818778563000002
1.7177051919576077e+18,-0.0185042512605,0.0005958758382250001,-0.0013421566807634998
1.7177051921576077e+18,-0.009001051301296317,0.0016063129725157896,0.0006588904652631577
1.7177051923576077e+18,-0.0031616302439500003,2.7506911938000016e-05,-1.3359286759499972e-05
1.7177051925576077e+18,-0.0006618548532500004,-0.0010192884249599998,-0.0008426501648195001
1.7177051927576077e+18,0.009981818678570002,0.001060948241515,-0.001012100488855
1.7177051929576077e+18,0.0441433287225,0.004992957058355,-0.0023433072376500006
1.7177051931576077e+18,0.03987447097449999,0.052592966517,0.0388309969564
1.7177051933576077e+18,0.14892523651865003,0.03780950119295,0.027033290454600005
1.7177051935576077e+18,0.064159493338,-0.00970261631335,0.052807914696689995
1.7177051937576077e+18,-0.007989529665790002,-0.024653283867949998,0.0023005169118
1.7177051939576077e+18,-0.006982357015547368,-0.0041492428683,-0.015058194066684209
1.7177051941576077e+18,-0.017266256665270003,0.014148557046649999,-0.007592146156730499
1.7177051943576077e+18,-0.033725981973500005,0.0979766132285,0.017255309468575
1.7177051945576077e+18,-0.06466239942005,0.050857488529100006,0.099628060867
1.7177051947576077e+18,0.04035750881359999,-0.0628111604595,0.016320306644600005
1.7177051949576077e+18,-0.008788115461399999,-0.0033555131512499987,-0.023923435224050004
1.7177051951576077e+18,-0.015080096233549996,-0.0009614375191499995,0.00566674894675
1.7177051953576077e+18,-0.003728845261250001,0.010667570415805001,0.03056185333920001
1.7177051955576077e+18,-0.00731959547567,0.007016694580784999,-0.00563164579276
1.7177051957576077e+18,0.01336733901570526,-0.04071655442989474,-0.01642017228105263
1.7177051959576077e+18,0.017473004103765,0.011175375920534998,-0.01221593000288
1.7177051961576077e+18,0.01103905572672,0.019505268614000003,-0.008074745571
1.7177051963576077e+18,0.045953923417149996,0.07947635892610001,-0.008011450991060001
1.7177051965576077e+18,0.0751695882515,-0.04021792619009999,-0.0489219807085
1.7177051967576077e+18,-0.032771883520199996,-0.057747087068000004,-0.024929482140700003
1.7177051969576077e+18,-0.072838117928,-0.0337838872801,-0.04536855006685
1.7177051971576077e+18,-0.064797565158,-0.01945416438485,-0.01926804008045
1.7177051973576077e+18,-0.0629335435105,-0.029882227164,-0.00945340085291
1.7177051975576077e+18,-0.039891756139,-0.010860611359049999,-0.017297266795
1.7177051977576077e+18,-0.03553996774368422,-0.010074698488105265,-0.019947507664210523
1.7177051979576077e+18,-0.017925252125,-0.005835801945359999,-0.004839603940341499
1.7177051981576077e+18,-0.01606134991115,0.0011562975211117,0.0033009705133149997
1.7177051983576077e+18,-0.0033316055794935006,-0.0017480842099250001,-0.002936298272173
1.7177051985576077e+18,-0.0033408495670149995,-0.001412697293586345,-0.0011659828479505
1.7177051987576077e+18,0.007691154251079998,0.0010067885683799,-0.00185839609473
1.7177051989576077e+18,0.015847859858500003,0.0016993786411199998,-0.0001336995629069999
1.7177051991576077e+18,0.020279613509000004,0.00244973693618,0.00090142039116
1.7177051993576077e+18,0.021255997847500003,0.004087066001405,-0.0015475019229349996
1.7177051995576077e+18,0.020126467522105264,0.007515980371894737,0.0004246337829894737
1.7177051997576077e+18,0.030101348366999996,0.0062559730373500004,-0.0028794503071650004
1.7177051999576077e+18,0.025561713334500004,0.003537270188075,-0.001258174574475
1.7177052001576077e+18,0.021087249322,0.00041626241877500006,-0.002554160077155
1.7177052003576077e+18,0.02184750777595,0.0069351155662,0.0006184961996499999
1.7177052005576077e+18,-0.01300353638945,-0.0017233805497500001,0.00021542718167999998
1.7177052007576077e+18,-0.0493512284015,-0.007620112411399998,-0.000723138067454
1.7177052009576077e+18,-0.046730163508,-0.0022566783242199996,-0.0027899754116549997
1.7177052011576077e+18,-0.0365446510725,-0.00550124023565,0.0015366987907000002
1.7177052013576077e+18,-0.02242981544473684,-0.005078012283011579,-0.0030147849924999997
1.7177052015576077e+18,-0.016978123738000003,0.00031734466031500006,-0.000623115454762145
1.7177052017576077e+18,-0.0051629550929780995,4.107774872369998e-05,0.0002853740938015
1.7177052019576077e+18,-0.0036812393925999996,-0.0019028098729650003,-0.0005192138021590002
1.7177052021576077e+18,-0.0022720190359449997,0.0004145873128385,-0.00027696458851500007
1.7177052023576077e+18,0.00672794003394,0.001218853835562,-0.0009011149173150001
1.7177052025576077e+18,0.016812959220249998,0.0018439844396226503,-0.0007597313845495
1.7177052027576077e+18,0.0214049831975,0.0029078811639649997,-0.0002920369384575
1.7177052029576077e+18,0.022521458752500004,0.002433599249315,-0.000491565000203
1.7177052031576077e+18,0.02226125223473684,0.008023443485105263,0.0011109632414736841
1.7177052033576077e+18,0.0274716575625,0.005203968973400001,0.00010608620938100006
1.7177052035576077e+18,0.0129059786678,-0.0026241402373899997,-0.0023405510118349997
1.7177052037576077e+18,-0.006914215217114999,-0.0021362017025900004,0.0007849326822615
1.7177052039576077e+18,-0.023768813256499998,-0.0033913517604788994,-0.0005017825984400001
1.7177052041576077e+18,-0.0273889404725,-0.0033564958839499997,-0.0002948491252029999
1.7177052043576077e+18,-0.031025272887500004,-0.006788805045550001,-0.00019766022442999995
1.7177052045576077e+18,-0.020076759298999998,-0.0050038929329999995,-0.00061576296577
1.7177052047576077e+18,-0.0151665647058,-0.0005523740925700001,0.00011900519019149999
1.7177052049576077e+18,-0.0036338999359105265,-0.0008284874065105262,0.0002156371666873684
1.7177052051576077e+18,-0.0015894041075904999,-0.0014768716645585,-0.00028722825225500003
1.7177052053576077e+18,-0.00147050154507,4.317119596999998e-05,0.000233663222785
1.7177052055576077e+18,0.01383364354355,0.0022800644161635,0.00023877035133499999
1.7177052057576077e+18,0.022046076506,0.00318034945525,0.0009942216565425
1.7177052059576077e+18,0.022609313018,0.00172474100251,-0.00041793568519999996
1.7177052061576077e+18,0.017152615683,0.002984972353415,0.00024651392600000006
1.7177052063576077e+18,0.0251075681295,0.0043078522431,0.00040262499819499994
1.7177052065576077e+18,0.0226345347245,0.0004596924875000001,-0.000991191039896
1.7177052067576077e+18,0.01251897020285,0.0016442555293925,-0.0004695855197999999
1.7177052069576077e+18,0.0012668366360315789,0.0003291054500578948,-0.0004197316685610526
1.7177052071576077e+18,-0.00807040073,-0.001300096139305,0.00015406038143499998
1.7177052073576077e+18,-0.0187590005335,-0.002156832523175,-0.00032896847693149995
1.7177052075576077e+18,-0.0287734079175,-0.00450428023475,-0.000653211050774
1.7177052077576077e+18,-0.0329861018805,-0.0044367081602,0.0010991203598925002
1.7177052079576077e+18,-0.025163767580500002,-0.0046858108952499995,-8.825806438950005e-05
1.7177052081576077e+18,-0.01517097782315,-0.0014841755444750001,-0.0002712545917694999
1.7177052083576077e+18,-0.006163868424439999,-0.00017227422794149997,0.00012168714324999992
1.7177052085576077e+18,-0.0026020755642850004,-0.0008020234322785001,-0.000130167161131
1.7177052087576077e+18,-0.0011391017898578946,-0.00035617592451736845,-0.0008075283840789474
1.7177052089576077e+18,0.011173050780800001,0.0020488177135550003,-0.000489584123745
1.7177052091576077e+18,0.0194698971695,0.003427807294065001,-0.00048760806672399997
1.7177052093576077e+18,0.024296720232499996,0.0047550847405499995,1.6395689445500014e-05
1.7177052095576077e+18,0.0261298455295,0.0030756463004715006,0.0006252363789799999
1.7177052097576077e+18,0.025866466294500002,0.0026467580173999998,-0.00043277672961499993
1.7177052099576077e+18,0.0203036609572,0.0012523340089999999,-0.001378725026735
1.7177052101576077e+18,0.00347496705063,0.000315466613502,0.00025116967727750007
1.7177052103576077e+18,-0.006624939487969999,-0.00014925173593725,0.000989043037329
1.7177052105576077e+18,-0.025915770349473687,-0.0038515996481052633,-0.0003405978020631579
1.7177052107576077e+18,-0.0374108254915,-0.0066422899021,0.00032914013130750004
1.7177052109576077e+18,-0.03270557103649999,-0.004425825830585,-0.001062311185575
1.7177052111576077e+18,-0.00441509316194,0.011310809833861001,0.00016061885995000014
1.7177052113576077e+18,0.037670073112565,0.00827035381195,-0.00387738980305
1.7177052115576077e+18,0.06194921954299999,0.04050079938050001,-0.008254847838115
1.7177052117576077e+18,0.038541109143575,-0.0425644652477,0.023311940568739996
1.7177052119576077e+18,-0.0677904665455,-0.1136829009275,0.01486324002065
1.7177052121576077e+18,-0.024684864837010004,-0.11467732266100002,-0.035162261666715
1.7177052123576077e+18,-0.004502349765631579,-0.0352166614021579,-0.055455790048
1.7177052125576077e+18,0.037287182850549994,-0.052342373133,-0.028927845041500005
1.7177052127576077e+18,0.066272052843,-0.02569630418405,0.015580892517549998
1.7177052129576077e+18,-0.00949964937725,0.0060517158007,0.01241980863255
1.7177052131576077e+18,-0.014481326099899999,0.0665240092205,0.00915460367707
1.7177052133576077e+18,-0.052051195660725004,0.018314733227605,0.011919191456850001
1.7177052135576077e+18,0.0006226526982999999,-0.0351899057738,-0.022920839021899994
1.7177052137576077e+18,0.030552059261249997,0.035207078455075,0.02542181336305
1.7177052139576077e+18,0.0326160878411,-0.04466667296185,-0.0335762797887
1.7177052141576077e+18,0.03378174602965,0.026483073923500005,0.012391462737799999
1.7177052143576077e+18,0.08810941070842104,-0.00831929148210526,-0.007070008053326316
1.7177052145576077e+18,0.011894900643449996,0.015872348006499996,-0.0688590688259
1.7177052147576077e+18,-0.011805998036419999,-0.031956833372000004,0.01796635334
1.7177052149576077e+18,0.7104680880850001,0.09366689691295,-0.012848054897
1.7177052151576077e+18,0.9890330165849999,0.2548040651446,-0.0647033160051
1.7177052153576077e+18,0.27706393280100006,0.0207607939795,0.09064618153495
1.7177052155576077e+18,-0.57730937302,0.03549554272989999,-0.11159385675155002
1.7177052157576077e+18,-0.1738786100035,-0.08129739463499999,0.002395409295500001
1.7177052159576077e+18,-0.060242160742499995,0.013854910529199998,-0.0116034233243
1.7177052161576077e+18,-0.32253984243684214,0.01785131938510526,0.014040281359870524
1.7177052163576077e+18,-0.22017769814000002,0.027177368645699994,0.00369884079564
1.7177052165576077e+18,-0.1356091713555,0.08421244043750001,-0.004535795190099999
1.7177052167576077e+18,0.086160073109935,0.0784250044022,0.05149733121540001
1.7177052169576077e+18,0.157083801553,0.175643201724,0.139570394341
1.7177052171576077e+18,0.1732581030655,0.10924256317600001,0.1268338324555
1.7177052173576077e+18,0.11802300663000001,-0.1412143312435,-0.0666261604521
1.7177052175576077e+18,0.2133523213243,-0.060553046678375,0.005663195906849999
1.7177052177576077e+18,-0.07863467023599999,-0.06254724024945,-0.0884922763365
1.7177052179576077e+18,-0.2557297348947369,-0.08619955898157894,-0.04117903586078947
1.7177052181576077e+18,-0.10827953356725,-0.010859761435299998,-0.01725995030655
1.7177052183576077e+18,-0.09733417253965,-0.011324859084100001,0.0002869292481000006
1.7177052185576077e+18,0.12302940058949996,0.007613173383199998,-0.005712388827874999
1.7177052187576077e+18,0.041172484447999994,0.0132594132644,0.02071204248245
1.7177052189576077e+18,0.10935956951099998,0.023638017096904995,-0.0507240943155
1.7177052191576077e+18,0.13132136017100002,-0.012747261124200002,0.0299391153032
1.7177052193576077e+18,0.086474581057,-0.006947063841450001,0.017723177187939997
1.7177052195576077e+18,-0.28637114316499995,0.040778881815700004,0.01014066040755
1.7177052197576077e+18,-0.16766396577105266,0.05342563878947368,0.004811041740315788
1.7177052199576077e+18,-0.15133876646795,0.064519351256,0.0244311388111
1.7177052201576077e+18,0.0955244587281,0.04900580353575,0.02265545744495
1.7177052203576077e+18,-0.18263134435349998,-0.1046690166956,-0.07980988529103002
1.7177052205576077e+18,-0.10509131341164998,-0.045201506422499996,-0.017924888664864996
1.7177052207576077e+18,0.04835695451925,-0.10482348753654999,-0.050768002292785
1.7177052209576077e+18,0.0664195320371,-0.1064619607243,-0.013172866541935002
1.7177052211576077e+18,0.17378777674399998,-0.0701201782574,-0.04114705142665
1.7177052213576077e+18,0.279497698695,0.04069089840415,0.01986329376235
1.7177052215576077e+18,0.10680812842842108,0.23293747006842105,0.056265908607163156
1.7177052217576077e+18,-0.13320738887199995,0.1874851432595,0.1042709065595
1.7177052219576077e+18,-0.037759392884255,-0.13352864737800002,-0.06784262238250001
1.7177052221576077e+18,-0.13576740910699997,-0.124924542258175,-0.08798676179649999
1.7177052223576077e+18,-0.042150765029199996,0.05141149611451,-0.021609600910200005
1.7177052225576077e+18,-0.04961905809855,0.04771654540308999,0.05572790493980001
1.7177052227576077e+18,0.0233306544483,0.017780660369450006,0.0523237139915
1.7177052229576077e+18,-0.012998644751464996,0.019769802131650003,0.0391520871815
1.7177052231576077e+18,0.01739324274175,-0.027615473617234997,-0.0068265364511000005
1.7177052233576077e+18,0.06002029075730002,0.06933651865974998,0.048871090495600004
1.7177052235576077e+18,-0.15487852006194733,0.09207264912521053,0.023179531538368416
1.7177052237576077e+18,-0.05987914667324999,0.01144121347375,-0.039183714846494994
1.7177052239576077e+18,-0.26089771614,-0.047992917384754995,-0.0468574400065
1.7177052241576077e+18,-0.0373832322675,-0.03002396250585,-0.0532421399079
1.7177052243576077e+18,0.059048741589700006,-0.08615427036100001,-0.0786922128629
1.7177052245576077e+18,0.126564421694,-0.015520811343245003,0.04144298278285
1.7177052247576077e+18,0.03694159765870001,0.0019099628592000012,0.0002516212658999987
1.7177052249576077e+18,0.09262610471035002,-0.2334122810544,-0.0664658007727
1.7177052251576077e+18,-0.31802313551499994,-0.1753896541835,0.02198057297975
1.7177052253576077e+18,-0.09755487190947369,-0.03077094074720527,-0.0041614502522105265
1.7177052255576077e+18,-0.061994084998499996,0.0477879391515,-0.0028259004457500013
1.7177052257576077e+18,-0.02712653558575,0.0311419921935,0.018706412286564996
1.7177052259576077e+18,0.07670711819335001,0.0058092596933999995,-0.0266190175435
1.7177052261576077e+18,0.0080960438298,-0.01010049066945,-0.03881782260675
1.7177052263576077e+18,-0.079933485764,-0.02003894141,0.005523711268120001
1.7177052265576077e+18,-0.11804907657249997,-0.0044708794925,0.0410949155912
1.7177052267576077e+18,-0.000991427898749999,0.0264342356207,0.013560614943799999
1.7177052269576077e+18,0.06037812445030499,-0.0381942023555,0.0021442265696500025
1.7177052271576077e+18,-0.05699874946342105,-0.09776143416210527,-0.009439314520736842
1.7177052273576077e+18,0.0013989959282650001,0.0025867756124999994,-0.017999242107150003
1.7177052275576077e+18,0.0401701516955,-0.0039992158896500025,0.0406374144838
1.7177052277576077e+18,0.04029063649965,-0.004826410487270002,0.03234195341209999
1.7177052279576077e+18,0.14128287797349998,0.12365529201300003,-0.1522610952027
1.7177052281576077e+18,0.36328193078899995,0.019171889680000005,-0.20179107419125
1.7177052283576077e+18,1.06684409082,0.20525963138849995,-0.23403320661809998
1.7177052285576077e+18,1.9840653835999997,1.43704807471,-0.5554039929555
1.7177052287576077e+18,2.5972836494800005,4.0235240459499995,-0.8570355394444998
1.7177052289576077e+18,-0.4472083712031579,5.397735997315789,0.3925115711057895
1.7177052291576077e+18,0.25293884397800004,4.49772088525,3.90735310325
1.7177052293576077e+18,0.030699720940526327,0.3546153050393157,0.4191646834226315
1.7177052295576077e+18,-0.0674845122295,-0.06905901855530001,-0.008440519264545001
1.7177052297576077e+18,0.0342008254837,-0.0331286944451,0.00921606392395
1.7177052299576077e+18,0.13429586860735002,0.1416605063695,-0.055151369436945
1.7177052301576077e+18,0.009892539682666658,-0.0358573843536,-0.02237165496133334
1.7177052303576077e+18,,,
