Timestamps,Acc_X,Acc_Y,Acc_Z,Label,Set_Time
1.717697295491117e+18,2.6384599622330587,-2.5929928300701177,9.174645003927056,1,17200000000.0
1.717697295691117e+18,4.01828986125,-5.290858441654762,3.2163310710702384,1,17200000000.0
1.717697295891117e+18,2.1818355215685883,-14.285615629411764,5.917358906141176,1,17200000000.0
1.717697296091117e+18,10.12486930420238,-11.751832087523812,4.194724915549167,1,17200000000.0
1.717697296291117e+18,0.3804552895382352,-6.26285784097647,3.890912631928118,1,17200000000.0
1.717697296491117e+18,6.757210075761903,-3.297576670138095,5.287525615552381,1,17200000000.0
1.717697296691117e+18,6.652148998494115,-5.956284513247059,4.728055642750589,1,17200000000.0
1.717697296891117e+18,4.676209245392858,-9.102596458976189,4.417709628678571,1,17200000000.0
1.717697297091117e+18,3.408775235904762,-7.050608589476189,5.224311624273811,1,17200000000.0
1.717697297291117e+18,3.2226042705647058,-7.485382629858823,5.603040510082352,1,17200000000.0
1.717697297491117e+18,3.2739261843571423,-7.362028053833332,5.888003037047619,1,17200000000.0
1.717697297691117e+18,3.207251487082353,-8.033134892388235,6.034294027458823,1,17200000000.0
1.717697297891117e+18,2.0173951816898805,-7.644779937583332,7.164171531107144,1,17200000000.0
1.717697298091117e+18,1.951075910118824,-3.999694533870588,7.953214656600002,1,17200000000.0
1.717697298291117e+18,2.2421567141797616,-2.264058875880952,9.104408888619048,1,17200000000.0
1.717697298491117e+18,2.9454115707011903,-2.205545107816167,9.473758146869049,1,17200000000.0
1.717697298691117e+18,2.440253313496471,-0.9015557515791764,9.611461875023531,1,17200000000.0
1.717697298891117e+18,0.4107856912657143,-1.0491245430315477,9.807763417785717,1,17200000000.0
1.717697299091117e+18,1.6201274251808235,-1.733293858708235,9.067439561658825,1,17200000000.0
1.717697299291117e+18,1.4967105548214283,-1.0596643586916668,9.52646433717857,1,17200000000.0
1.717697299491117e+18,1.2842032825317646,-1.604989307098824,8.436635174470588,1,17200000000.0
1.717697299691117e+18,0.4901476436966309,-0.24668862104,9.230943554988094,1,17200000000.0
1.717697299891117e+18,1.5575032145630954,0.8330975168218332,11.638390257380951,1,17200000000.0
1.717697300091117e+18,2.398452814847059,0.8316536594121174,11.441425750470588,1,17200000000.0
1.717697300291117e+18,2.224641388416667,0.6087846455877144,10.822241885238094,1,17200000000.0
1.717697300491117e+18,1.4334204049835295,-0.3246110227331412,9.263953657717646,1,17200000000.0
1.717697300691117e+18,1.7984554739285716,-1.6198163046071428,8.359749657714286,1,17200000000.0
1.717697300891117e+18,2.0522113842352936,-1.8221837057529409,8.44010124207059,1,17200000000.0
1.717697301091117e+18,1.310608078946726,-0.8376303597684525,8.445606362261904,1,17200000000.0
1.717697301291117e+18,1.0239500591685713,0.8351876836616667,10.671280429035717,1,17200000000.0
1.717697301491117e+18,1.5484412767882354,1.576507672832941,12.167942967294117,1,17200000000.0
1.717697301691117e+18,0.957193149702381,0.6160200898030952,11.240458839880953,1,17200000000.0
1.717697301891117e+18,0.9385107866491412,-0.2591849187147412,9.640605073658822,1,17200000000.0
1.717697302091117e+18,1.0839059246595235,-1.5075352397178572,8.44754342802381,1,17200000000.0
1.717697302291117e+18,2.3871115292470586,-1.828457832341176,8.228181592129411,1,17200000000.0
1.717697302491117e+18,1.7593833833,-1.059589588163143,8.500794439035712,1,17200000000.0
1.717697302691117e+18,1.4284439072714283,0.7759795626623571,10.007410991416666,1,17200000000.0
1.717697302891117e+18,1.2758284077623532,1.7049283644129412,11.383895930117648,1,17200000000.0
1.717697303091117e+18,1.2050710604773809,1.3448945141547617,11.677490859285715,1,17200000000.0
1.717697303291117e+18,2.004685699235294,0.6480361920036471,10.454024046235295,1,17200000000.0
1.717697303491117e+18,1.6875346182523812,-0.5245800720400714,8.90946148125,1,17200000000.0
1.717697303691117e+18,1.7495263393882352,-1.4128069407576471,8.042966601411765,1,17200000000.0
1.717697303891117e+18,1.747351610904762,-1.543310083095238,8.90626393045238,1,17200000000.0
1.717697304091117e+18,1.8604374087142856,0.1313559889736309,9.161786726416668,1,17200000000.0
1.717697304291117e+18,1.0924396598111763,0.5324487835961998,10.99064259247059,1,17200000000.0
1.717697304491117e+18,1.7543378017857143,1.176948272028571,11.407610984285716,1,17200000000.0
1.717697304691117e+18,1.435788600562353,0.7213938032952942,10.851897587399998,1,17200000000.0
1.717697304891117e+18,1.505288400829762,-0.4824101376948095,9.254992848452382,1,17200000000.0
1.717697305091117e+18,0.9581389693611764,-1.3534403106658823,8.813508224470587,1,17200000000.0
1.717697305291117e+18,1.5910561425047625,-1.6563353340476197,8.705387887499999,1,17200000000.0
1.717697305491117e+18,1.4997300796583333,-0.8565984698240476,9.07838338892857,1,17200000000.0
1.717697305691117e+18,1.9050422429647056,0.1057099776588235,9.952062550835294,1,17200000000.0
1.717697305891117e+18,1.0114625055181548,0.4562065917948333,10.700396674285717,1,17200000000.0
1.717697306091117e+18,1.17455569924,0.4439037892652941,11.456113478705882,1,17200000000.0
1.717697306291117e+18,1.5640300682583337,0.5585353668674999,10.024324530178571,1,17200000000.0
1.717697306491117e+18,1.1676868947258825,-0.5773599541952118,9.090530283282355,1,17200000000.0
1.717697306691117e+18,2.0814779613928573,-1.1425443298928577,8.784087555750002,1,17200000000.0
1.717697306891117e+18,2.316693850952381,-1.2570544233178569,8.344879979119046,1,17200000000.0
1.717697307091117e+18,1.3547563559964706,-0.5710717549629882,8.792535877235295,1,17200000000.0
1.717697307291117e+18,3.861609815107143,0.1040877856219762,9.24847669836905,1,17200000000.0
1.717697307491117e+18,4.265688466904706,0.6920183891044707,10.916450994058824,1,17200000000.0
1.717697307691117e+18,2.6197312955821426,2.331716650749333,10.005947544559524,1,17200000000.0
1.717697307891117e+18,0.9375360622058826,2.4516508845647054,9.79213402704706,1,17200000000.0
1.717697308091117e+18,0.7951719955964285,0.7562779469321428,10.03158498977381,1,17200000000.0
1.717697308291117e+18,0.4758227525455713,1.471308192311905,9.8645359335,1,17200000000.0
1.717697308491117e+18,-0.8267237445552942,1.549546196165882,9.934580903941177,1,17200000000.0
1.717697308691117e+18,0.0255661701646071,1.225556036545238,9.931168250238096,1,17200000000.0
1.717697308891117e+18,0.0737376441985999,1.6152643694588245,9.831242617411766,1,17200000000.0
1.717697309091117e+18,-0.2374306753988095,1.3771192814523812,9.892555554702382,1,17200000000.0
1.717697309291117e+18,-0.0715031707564705,1.4069550822588237,9.859699585835294,1,17200000000.0
1.717697309491117e+18,-0.1002991490864285,1.3445669285952382,9.865301518285715,1,17200000000.0
1.717697309691117e+18,-0.0817500819662941,1.438381990270588,9.85694440957647,1,17200000000.0
1.717697309891117e+18,-0.2216886081511905,1.3467745795238095,9.899278209392856,1,17200000000.0
1.717697310091117e+18,-0.1919955306155952,1.4337850297261905,9.885943242511903,1,17200000000.0
1.717697310291117e+18,-0.2058390484082353,1.4582916848823528,9.88892365624706,1,17200000000.0
1.717697310491117e+18,-0.2301097767690476,1.450435087702381,9.886060601214284,1,17200000000.0
1.717697310691117e+18,-0.2372554020011765,1.453520112811765,9.887178387341176,1,17200000000.0
1.717697310891117e+18,-0.2208233461511904,1.436085272238095,9.885975236011904,1,17200000000.0
1.717697311091117e+18,-0.2348344280435294,1.4356865432941175,9.884813690188237,1,17200000000.0
1.717697311291117e+18,-0.2254416369607142,1.4177865797261908,9.883952685821429,1,17200000000.0
1.717697311491117e+18,-0.2061530647833333,1.363994361404762,9.88067683722619,1,17200000000.0
1.717697311691117e+18,-0.2314105809171765,1.354232046164706,9.863056598341176,1,17200000000.0
1.717697311891117e+18,-0.1025780280583333,1.4545156983690477,9.874894221607144,1,17200000000.0
1.717697312091117e+18,-0.2623483698188235,1.3424509174823531,9.891654418529413,1,17200000000.0
1.717697312291117e+18,-0.2221230197559522,1.3832651320119047,9.891843409738096,1,17200000000.0
1.717697312491117e+18,-0.2162091202564706,1.4560994414117645,9.886559060070589,1,17200000000.0
1.717697312691117e+18,-0.247617974345238,1.3907284523333334,9.883041256976188,1,17200000000.0
1.717697315691117e+18,1.9376059331309523,-0.5932063681682143,11.621982290976192,2,13600000000.0
1.717697315891117e+18,2.1005076821823527,-1.5679498228472115,10.264670776094118,2,13600000000.0
1.717697316091117e+18,1.3405646504809523,-1.2333896908658335,8.783656733392858,2,13600000000.0
1.717697316291117e+18,1.568759158737647,-1.5169615907047058,6.941870577164706,2,13600000000.0
1.717697316491117e+18,1.3839915288464286,-1.2654079348298808,7.896588949940477,2,13600000000.0
1.717697316691117e+18,1.5053669599068236,0.1995719653307882,10.04111424614118,2,13600000000.0
1.717697316891117e+18,1.690774882120238,1.2355261356583331,11.280086392619047,2,13600000000.0
1.717697317091117e+18,1.9090665504369049,0.8521439668539285,11.768172422976187,2,13600000000.0
1.717697317291117e+18,1.895967096470588,0.1616598015276823,10.747570452364709,2,13600000000.0
1.717697317491117e+18,1.7192786889500002,-0.9447376532869046,9.112417027773809,2,13600000000.0
1.717697317691117e+18,0.6229995259541177,-1.6382812079164704,8.324950190141177,2,13600000000.0
1.717697317891117e+18,1.0583539988285713,-1.8836036480952376,8.564425025630952,2,13600000000.0
1.717697318091117e+18,1.379676901551765,-1.0324114818966232,8.879303853647059,2,13600000000.0
1.717697318291117e+18,1.208624681402524,-0.130034960969369,10.534846759761908,2,13600000000.0
1.717697318491117e+18,1.7209557938875,1.1513820989241668,11.84630581357143,2,13600000000.0
1.717697318691117e+18,1.6746802652588235,0.3857581983293882,10.900211514329412,2,13600000000.0
1.717697318891117e+18,2.023512540821429,-0.988339011697738,9.30809783925,2,13600000000.0
1.717697319091117e+18,1.8796360872017648,-1.169474480432941,8.599350615105882,2,13600000000.0
1.717697319291117e+18,1.1707810621023806,-1.616447851797619,8.316607611511902,2,13600000000.0
1.717697319491117e+18,1.326137496021388,-0.9540852451364704,8.818371352070589,2,13600000000.0
1.717697319691117e+18,1.8363489560932145,-0.4136520945966072,10.836609477095235,2,13600000000.0
1.717697319891117e+18,1.7364628484749995,0.0993056978171904,11.71763112392857,2,13600000000.0
1.717697320091117e+18,1.6352409244666823,-0.8581928770329413,10.402455049188235,2,13600000000.0
1.717697320291117e+18,2.481994456440476,-0.911668992360357,9.539542970333336,2,13600000000.0
1.717697320491117e+18,2.178130148423529,-1.3345370134448589,8.92536217182353,2,13600000000.0
1.717697320691117e+18,1.7856617044761909,-1.5121036810261903,7.87534190925,2,13600000000.0
1.717697320891117e+18,1.717015630665882,-1.275089437468235,9.590010918223529,2,13600000000.0
1.717697321091117e+18,2.0234555752250007,-0.7600309731563095,9.847209351333332,2,13600000000.0
1.717697321291117e+18,0.5980062576520953,0.2377938724317738,10.67545001797619,2,13600000000.0
1.717697321491117e+18,1.7540340086752944,0.0127558556362352,11.619004866117647,2,13600000000.0
1.717697321691117e+18,1.6211052921666664,-0.0932417456306905,10.247505108154762,2,13600000000.0
1.717697321891117e+18,1.8686572444236471,-0.8169694725094117,8.585257597529413,2,13600000000.0
1.717697322091117e+18,1.5608823596875,-1.2150233511571429,8.800869339845239,2,13600000000.0
1.717697322291117e+18,1.132628522172941,-1.2147656856694116,8.608056270305882,2,13600000000.0
1.717697322491117e+18,2.164464757559524,0.5726964634863095,10.179544653142855,2,13600000000.0
1.717697322691117e+18,2.158411487297619,1.3287785636598808,10.585790406666666,2,13600000000.0
1.717697322891117e+18,2.1274128717141174,1.3702780366,11.024469341882352,2,13600000000.0
1.717697323091117e+18,2.1203933833797617,0.2881392881482024,9.413154204642856,2,13600000000.0
1.717697323291117e+18,1.9172139542482352,-1.1089184566055414,8.11243935751765,2,13600000000.0
1.717697323491117e+18,1.0408351244683334,-1.587217658761905,7.938370704666668,2,13600000000.0
1.717697323691117e+18,5.029002380388236,-2.0002378561682352,8.836060613788236,2,13600000000.0
1.717697323891117e+18,3.067641349610714,-1.1809220692210711,9.235903751297618,2,13600000000.0
1.717697324091117e+18,5.071837437640824,2.6300674998917644,10.8161178536,2,13600000000.0
1.717697324291117e+18,2.3573291148605957,3.588201363833333,9.075605959857144,2,13600000000.0
1.717697324491117e+18,0.5368219255998808,1.6821685621023812,9.85439499214286,2,13600000000.0
1.717697324691117e+18,0.7790749025752941,0.547741734842,10.09383018722353,2,13600000000.0
1.717697324891117e+18,0.3230025722886904,0.9735049381607144,9.93587909472619,2,13600000000.0
1.717697325091117e+18,0.3192623640914118,1.3372113340117648,9.964142810423528,2,13600000000.0
1.717697325291117e+18,0.9135846694714286,1.3228321209773806,9.773676395285715,2,13600000000.0
1.717697325491117e+18,0.2649593639828706,1.082481289612941,9.9133199354,2,13600000000.0
1.717697325691117e+18,0.1465034150718571,1.3658388278297615,9.896244480916668,2,13600000000.0
1.717697325891117e+18,0.2582539286330952,1.3627979570357145,9.861366896559524,2,13600000000.0
1.717697326091117e+18,0.1798276589671764,1.361836294611765,9.91627574244706,2,13600000000.0
1.717697326291117e+18,0.1562847888040119,1.3257376920476192,9.866451638154762,2,13600000000.0
1.717697326491117e+18,0.206018511337647,1.3360747505529411,9.886418286505885,2,13600000000.0
1.717697326691117e+18,0.136704237157619,1.310732695285714,9.94291868670238,2,13600000000.0
1.717697326891117e+18,0.2118633317529412,1.215476491905882,9.894244238964708,2,13600000000.0
1.717697327091117e+18,0.2224755340333333,1.112747982845238,9.858304739047618,2,13600000000.0
1.717697327291117e+18,0.1988499718880952,1.1551636130952383,9.93207983757143,2,13600000000.0
1.717697327491117e+18,0.1984072233847059,1.1401729499294115,9.903308812364708,2,13600000000.0
1.717697327691117e+18,0.2182596073940476,1.1892328503809522,9.89677141957143,2,13600000000.0
1.717697327891117e+18,0.15280283865,1.200106118670588,9.914766165835294,2,13600000000.0
1.717697328091117e+18,0.2019656254416666,1.3310253953738094,10.129295383142855,2,13600000000.0
1.717697328291117e+18,0.1054355077276117,0.9359103490329412,9.762177994776469,2,13600000000.0
1.717697328491117e+18,0.029276470304,1.3491068780154765,9.904448407309523,2,13600000000.0
1.717697328691117e+18,0.097105157348869,1.2755667475226191,9.915468897523809,2,13600000000.0
1.717697328891117e+18,0.111238102729447,1.3563292881282354,9.765337966305882,2,13600000000.0
1.717697329091117e+18,0.0705312961107738,1.4609926995714286,9.87118033,2,13600000000.0
1.717697329291117e+18,-0.1162630298570588,1.4066559805058825,9.927856310670588,2,13600000000.0
1.717697334291117e+18,1.3527780075761906,-1.071404143332619,9.132431983845237,3,12800000000.0
1.717697334491117e+18,0.7149226222607058,-0.4312816464083528,10.81766973364706,3,12800000000.0
1.717697334691117e+18,1.436989701560714,-0.2594930698011904,11.87723101845238,3,12800000000.0
1.717697334891117e+18,1.290016432412941,-0.9145508957269411,10.59568605942353,3,12800000000.0
1.717697335091117e+18,1.6238933539321423,-1.1115693840452383,9.198234609214284,3,12800000000.0
1.717697335291117e+18,0.8195417561662708,-2.024616498094117,8.3350141132,3,12800000000.0
1.717697335491117e+18,1.1379473971916665,-2.331097072,8.478062663761905,3,12800000000.0
1.717697335691117e+18,1.4898952927309526,-0.6609567207453929,9.186448471714286,3,12800000000.0
1.717697335891117e+18,1.673107335151765,-0.3002781269362353,11.747450121882354,3,12800000000.0
1.717697336091117e+18,1.647743249890476,-0.1286783102079761,11.849467799761904,3,12800000000.0
1.717697336291117e+18,0.8439063163188235,-1.309137898509647,9.804330410658824,3,12800000000.0
1.717697336491117e+18,1.0682386351619049,-2.091918075333333,7.60742412292857,3,12800000000.0
1.717697336691117e+18,1.271739484282353,-1.939717051564706,9.050292138517646,3,12800000000.0
1.717697336891117e+18,1.4375095665976192,0.165094079576869,9.318552244261904,3,12800000000.0
1.717697337091117e+18,0.584728228836631,1.7592765653166662,10.622594322690478,3,12800000000.0
1.717697337291117e+18,0.975726212240706,0.943753884847176,11.704164695764709,3,12800000000.0
1.717697337491117e+18,1.5295157375607142,0.6097460482879524,10.284234251107142,3,12800000000.0
1.717697337691117e+18,1.3884458941670583,-0.8499376428938824,8.52115459447059,3,12800000000.0
1.717697337891117e+18,1.4073678354273806,-1.6876770371428569,8.504187742880953,3,12800000000.0
1.717697338091117e+18,1.4273257437682354,-1.0348957932661176,8.533379128388233,3,12800000000.0
1.717697338291117e+18,1.2777352407035714,1.4136988428465476,9.465767815035711,3,12800000000.0
1.717697338491117e+18,0.5057401597170833,1.997120276833333,11.282642999999998,3,12800000000.0
1.717697338691117e+18,1.1665678950058822,2.726311734141176,11.8853049,3,12800000000.0
1.717697338891117e+18,0.890122902261905,1.843530977069048,10.399029152964284,3,12800000000.0
1.717697339091117e+18,1.1030666051519176,0.717765862246,10.081362971411764,3,12800000000.0
1.717697339291117e+18,0.9660736581501193,-0.5955422225051906,8.773487176190475,3,12800000000.0
1.717697339491117e+18,1.143438455976471,-1.1476962696200002,7.650976500764704,3,12800000000.0
1.717697339691117e+18,1.288737963247619,-0.3586100532786904,8.954070511309524,3,12800000000.0
1.717697339891117e+18,1.6769235802822615,1.5344687267297616,10.53574055675,3,12800000000.0
1.717697340091117e+18,0.5876033509438825,1.1794363559225884,11.618864115282353,3,12800000000.0
1.717697340291117e+18,1.0367829842006429,1.1519375759226191,10.994250898690476,3,12800000000.0
1.717697340491117e+18,0.9848998814835294,0.3398124830909882,10.310225868882352,3,12800000000.0
1.717697340691117e+18,1.3412625477261904,-0.276666560040869,9.601987804607145,3,12800000000.0
1.717697340891117e+18,1.2361779282964709,-1.0921018463976473,8.00229213371765,3,12800000000.0
1.717697341091117e+18,1.2267061641964283,-1.4178115079916669,8.606947427690477,3,12800000000.0
1.717697341291117e+18,1.2573072406369048,-0.1914080079675,9.49239862532143,3,12800000000.0
1.717697341491117e+18,1.6313068389482352,0.5201750127244706,11.059995729976473,3,12800000000.0
1.717697341691117e+18,1.2785186109672615,1.0261114281155952,12.158775737976187,3,12800000000.0
1.717697341891117e+18,1.7648544942117648,0.6760498116729411,10.530041829105883,3,12800000000.0
1.717697342091117e+18,1.8046298115469048,0.7567337220535715,10.546112945773809,3,12800000000.0
1.717697342291117e+18,-0.5236305321294352,1.1779865862317649,6.572253339399999,3,12800000000.0
1.717697342491117e+18,2.359875047766428,0.0597422275032976,9.133959503321428,3,12800000000.0
1.717697342691117e+18,0.8396955997970953,-1.2172167689695474,10.874296421142857,3,12800000000.0
1.717697342891117e+18,2.83575874642353,-0.4979534316717647,9.04562264608235,3,12800000000.0
1.717697343091117e+18,4.154766204809524,-1.441761098309881,8.113221253642857,3,12800000000.0
1.717697343291117e+18,1.349323255018824,-5.0531769444117645,9.05430719164706,3,12800000000.0
1.717697343491117e+18,2.1211803073095234,-4.86065244104762,8.119078721285714,3,12800000000.0
1.717697343691117e+18,3.0900454128000003,-6.812527953835295,7.302032571635294,3,12800000000.0
1.717697343891117e+18,3.212321661761906,-6.924568783630953,6.606668778857144,3,12800000000.0
1.717697344091117e+18,3.433287447392857,-6.526954304535715,5.980326067869047,3,12800000000.0
1.717697344291117e+18,3.818885121635295,-7.622864341741176,5.151894945247059,3,12800000000.0
1.717697344491117e+18,3.941705294940476,-8.201104050559522,4.125212002380953,3,12800000000.0
1.717697344691117e+18,4.27854984222353,-9.30958966064706,3.3528653242705886,3,12800000000.0
1.717697344891117e+18,5.556351380702381,-9.081484759729763,0.9936623252917856,3,12800000000.0
1.717697345091117e+18,2.265615966385765,-7.696264179941176,2.1306044511015294,3,12800000000.0
1.717697345291117e+18,-10.755057743988097,-7.506768907690475,-4.894070059230954,3,12800000000.0
1.717697345491117e+18,-14.401341949273812,-10.173633864785714,-0.9415828300382144,3,12800000000.0
1.717697345691117e+18,-4.041611162050235,-6.049727759635294,7.971424680611764,3,12800000000.0
1.717697345891117e+18,-0.6402865799743572,0.7260899275880952,9.2369220995,3,12800000000.0
1.717697346091117e+18,0.660598512610941,3.264253450847059,8.899790651623531,3,12800000000.0
1.717697346291117e+18,0.2663902383977143,3.7673283389166654,8.312648040857141,3,12800000000.0
1.717697346491117e+18,-0.5475517160383528,5.040216990035294,8.712784542764705,3,12800000000.0
1.717697346691117e+18,0.1541162943897024,4.452042352511905,8.863502933892855,3,12800000000.0
1.717697346891117e+18,-0.3108795076121333,4.731324227600001,8.842476685706666,3,12800000000.0
1.717697347091117e+18,,,,3,12800000000.0
