Timestamps,Gyro_X,Gyro_Y,Gyro_Z,Label
1.7177162323888233e+18,-0.007116069264238,0.0290889147816666,0.0154810634083333,1.0
1.7177162325888233e+18,0.004103879409325,0.03503740789662,0.0212896616778,1.0
1.7177162327888233e+18,0.01242702519198,-0.0144306005678,-0.010281350976155,1.0
1.7177162329888233e+18,-0.0027409670991,-0.00346502962096,-0.007947824895115,1.0
1.7177162331888233e+18,0.00964880599086,-0.007459453633905,0.000354995345561,1.0
1.7177162333888233e+18,-0.0085323942536699,-0.0344585149555,-0.0111441686624499,1.0
1.7177162335888233e+18,-0.0025511175799149,0.0181335168424,0.000633587490625,1.0
1.7177162337888233e+18,0.0054835129941428,0.0007212632994804,0.0024285386199857,1.0
1.7177162339888233e+18,-0.011049060843575,-0.0178026828454999,-0.0072846232798899,1.0
1.7177162341888233e+18,0.0024219345331199,-0.006573825178225,-0.00019505359224,1.0
1.7177162343888233e+18,-0.001650905807741,-0.0059110304223399,-0.000735887570525,1.0
1.7177162345888233e+18,0.00994255067704,-0.01704911221765,-0.00463336675925,1.0
1.7177162347888233e+18,-0.2102601208947999,0.0913573779104499,-0.1118463922325,1.0
1.7177162349888233e+18,-0.5345160007399999,0.074123171602714,0.0501245084432,1.0
1.7177162351888233e+18,-0.5646725594952382,-0.0207789164192857,-0.0714559216214285,1.0
1.7177162353888233e+18,-0.282614778715,0.00432901751398,-0.02798980227727,1.0
1.7177162355888233e+18,0.161359886075,-0.277745147785,-0.0723987658555,1.0
1.7177162357888233e+18,0.522649180895,-0.1768937438649999,-0.086243064332,1.0
1.7177162359888233e+18,0.62032383979,0.0438589194675,-0.0333775970209,1.0
1.7177162361888233e+18,0.3120824077842999,0.0643375422917,0.0183810778075499,1.0
1.7177162363888233e+18,-0.1444154873475,0.0084138693616999,0.0337741966630499,1.0
1.7177162365888233e+18,-0.6108760565550001,0.1571759838495,0.0629577000299999,1.0
1.7177162367888233e+18,-0.6466150510904762,0.0348653248517619,-0.0360917802871428,1.0
1.7177162369888233e+18,-0.2806576497009999,-0.06585205299445,-0.02844778744,1.0
1.7177162371888233e+18,0.331793814897,-0.078839076312,-0.014931151398347,1.0
1.7177162373888233e+18,0.70018679499,-0.107914457459,-0.0046245268899099,1.0
1.7177162375888233e+18,0.7152356088,-0.095156027751,-0.0010389202040999,1.0
1.7177162377888233e+18,0.05490906526046,-0.1355431340695,-0.048832720098,1.0
1.7177162379888233e+18,-0.21067188991755,0.0207726692815,0.0326573976795,1.0
1.7177162381888233e+18,-0.5358380050999999,0.1908577707185714,0.0944199411247619,1.0
1.7177162383888233e+18,-0.576613694425,0.0037541673652199,0.0071623222678499,1.0
1.7177162385888233e+18,-0.2262762532545,-0.0367852241049749,-0.0174418679665,1.0
1.7177162387888233e+18,0.2146243435335,-0.0181299089315499,0.01160366790205,1.0
1.7177162389888233e+18,0.501020602885,-0.1171509254715,-0.0390370959409,1.0
1.7177162391888233e+18,0.7027515173000001,-0.0600701943035,0.0023457564289259,1.0
1.7177162393888233e+18,0.3380990192704999,-0.02216443127325,-0.0068116553707999,1.0
1.7177162395888233e+18,-0.06862676874535,-0.05177075278695,-0.04135306434362,1.0
1.7177162397888233e+18,-0.3845007189170952,0.1064184810068571,0.0189712628325285,1.0
1.7177162399888233e+18,-0.43897378445,0.1770767359119999,0.0955522661954499,1.0
1.7177162401888233e+18,-0.29775688797,-0.2465504918074999,-0.04679724094155,1.0
1.7177162403888233e+18,-0.1689685714415,-0.051276823881,0.0112911836703499,1.0
1.7177162405888233e+18,0.2100313365319999,0.0513063875039999,0.0303552385777,1.0
1.7177162407888233e+18,0.39157935232,-0.090901003123,-0.0599027959624999,1.0
1.7177162409888233e+18,0.58774070442,0.0477641554866,0.024575130677,1.0
1.7177162411888233e+18,0.3832225356900001,0.0429969438386666,-0.0152392793964857,1.0
1.7177162413888233e+18,-0.1479117821905,0.0035772522218,-0.019129191816545,1.0
1.7177162415888233e+18,-0.267426444964,0.04263070060145,0.02000424161125,1.0
1.7177162417888233e+18,-0.5343158751750001,0.10025557826285,0.02780597961985,1.0
1.7177162419888233e+18,-0.68105448484,0.099250652066,0.0301563392618499,1.0
1.7177162421888233e+18,-0.4001969166099999,-0.035405251235035,-0.0429585020979999,1.0
1.7177162423888233e+18,0.0660066314253449,-0.0028816069588,0.0116629165363,1.0
1.7177162425888233e+18,0.3614020705199999,-0.27039486021,-0.1713471608249999,1.0
1.7177162427888233e+18,0.6567093048761904,0.0994876789828571,0.0025853590001428,1.0
1.7177162429888233e+18,0.6851269096199999,0.0258832371903499,-0.0066605919966974,1.0
1.7177162431888233e+18,0.026201683003,0.01955617070505,0.0227491828146,1.0
1.7177162433888233e+18,-0.086733728083,0.094884525237,0.0487871411265,1.0
1.7177162435888233e+18,-0.5728781148900002,0.212467928971,0.0184864014154,1.0
1.7177162437888233e+18,-0.458545081325,0.14492979044,0.0474524621643999,1.0
1.7177162439888233e+18,-0.1409692012713,-0.036900155061,-0.0033209667417499,1.0
1.7177162441888233e+18,-0.5367425836285714,0.0204220050914285,0.0365410113170476,1.0
1.7177162443888233e+18,-0.5170417994100001,0.1382953049862499,-0.03907253953775,1.0
1.7177162445888233e+18,-0.123293745516,0.1291236736845,-0.03761643301405,1.0
1.7177162447888233e+18,-0.026017825171155,0.0720094845559,0.0273357360376,1.0
1.7177162449888233e+18,-0.0164702686016,-0.0565470956264999,-0.0154171294417649,1.0
1.7177162451888233e+18,-0.0179874556366974,-0.0140767204814,0.01645404755951,1.0
1.7177162453888233e+18,-0.009937376325645,0.0789024025189999,0.0002263005824999,1.0
1.7177162455888233e+18,0.0014958904647,0.041431663836,0.0253709656649,1.0
1.7177162457888233e+18,0.0008982208700952,-0.0011338585366619,-0.009812644106,1.0
1.7177162459888233e+18,0.001878911856265,0.01095643463815,0.0045543745977234,1.0
1.7177162461888233e+18,-0.001034606841985,0.0084611762082,-0.00452714406413,1.0
1.7177162463888233e+18,-0.01004837509245,0.00617789251279,0.006595303921255,1.0
1.7177162465888233e+18,0.0096330302235799,-0.01046747786469,-0.0241211876271,1.0
1.7177162467888233e+18,0.0026575509566499,0.0162300663075,0.0370445150996899,1.0
1.7177162469888233e+18,-0.01708966562343,-0.026683214725,-0.01229520710217,1.0
1.7177162471888233e+18,-0.0022121752369142,0.0186469354111171,-0.0005053558855714,1.0
1.7177162473888233e+18,-0.008961178315615,-0.000903993530665,-0.0028128192515499,1.0
1.7177162475888233e+18,-0.0047870526965249,-0.00796121191245,-0.007006195769725,1.0
1.7177162477888233e+18,-4.795763816450001e-05,-0.009569388442155,-0.0010860549637999,1.0
1.7177162479888233e+18,0.002685432426855,0.00819856922588,0.00345348891574,1.0
1.7177162481888233e+18,-0.0009410779399845,-0.006015788461675,-0.0075462163775299,1.0
1.7177162483888233e+18,0.002413372317345,0.00731381208218,0.00263282356294,1.0
1.7177162485888233e+18,0.002893068893938,-0.0042776468296666,0.0006841247280619,1.0
1.7177162487888233e+18,0.0084003646738999,0.0021323490071799,-2.1878105898999727e-05,1.0
1.7177162489888233e+18,0.0089335790952699,-0.00815755600895,-0.004532900405895,1.0
1.7177162737888233e+18,0.99274951811,-0.0789272994698,0.00234956079985,2.0
1.7177162739888233e+18,0.479039180847619,-0.1173773312095238,0.0669410653550476,2.0
1.7177162741888233e+18,0.421274416135,-0.185040762285,0.01435006469275,2.0
1.7177162743888233e+18,0.450405317545,-0.12773980229,-0.04865428663055,2.0
1.7177162745888233e+18,0.1549380449615,0.12752421954,-0.0680221030034,2.0
1.7177162747888233e+18,-0.0018039390018999,0.17073275895,0.072716696934,2.0
1.7177162749888233e+18,-0.2499079462165,0.00177859682115,0.0465122308113,2.0
1.7177162751888233e+18,-0.679637888075,-0.02774753150395,0.015500007651,2.0
1.7177162753888233e+18,-0.5676104468904761,0.074383028045619,-0.0158750338240476,2.0
1.7177162755888233e+18,-0.2024525468688999,0.0558384848735,-0.0359020028386899,2.0
1.7177162757888233e+18,0.2182015493559999,-0.0845803697545,-0.001264077401424,2.0
1.7177162759888233e+18,0.4943716853800001,-0.158435494455,-0.04930865117355,2.0
1.7177162761888233e+18,0.5668562352650001,-0.1549768038024999,-0.053004388417,2.0
1.7177162763888233e+18,0.4026821125305,0.0246587465049,-0.0147822436640649,2.0
1.7177162765888233e+18,-0.0408769386116,0.07183967274485,0.04875799687535,2.0
1.7177162767888233e+18,-0.2984684695485499,-0.019895984917565,0.0499470456524,2.0
1.7177162769888233e+18,-0.6111871287952381,-0.033231828668898,0.0126740720590952,2.0
1.7177162771888233e+18,-0.6232350185650001,0.05190920881615,-0.01190802205861,2.0
1.7177162773888233e+18,-0.315737083182,0.15146366544,0.0250930880897299,2.0
1.7177162775888233e+18,0.02398966075775,-0.0706932875718499,0.01659540723794,2.0
1.7177162777888233e+18,0.2879147399215,-0.28118043765,-0.118009258434,2.0
1.7177162779888233e+18,0.630154235685,-0.0082413278994999,-0.05110888639515,2.0
1.7177162781888233e+18,0.72102465033,0.01352856277804,-0.0469974477415,2.0
1.7177162783888233e+18,0.0070373301672666,0.0729714432473809,0.0002933951498095,2.0
1.7177162785888233e+18,-0.0907211923175,0.0321662288730999,-0.0214123540560999,2.0
1.7177162787888233e+18,-0.5636107429750001,0.121246958893,0.0626790914314499,2.0
1.7177162789888233e+18,-0.609410974385,0.0186840040732,0.0148960129119,2.0
1.7177162791888233e+18,-0.348231124885,0.1469873035445,0.00528574279805,2.0
1.7177162793888233e+18,0.0792977956531,-0.026037431537495,0.00146269622465,2.0
1.7177162795888233e+18,0.3337839111649999,-0.04946453644742,-0.03631776098696,2.0
1.7177162797888233e+18,0.58917038291,-0.02882989078057,0.0252630715964999,2.0
1.7177162799888233e+18,0.5359879945,-0.0894480693052857,0.0519599703269238,2.0
1.7177162801888233e+18,0.1332355640818499,-0.0545513144674999,-0.0044513659784,2.0
1.7177162803888233e+18,-0.029799643718,0.0395593992507849,0.034922436171,2.0
1.7177162805888233e+18,-0.3136902418052999,0.025119070255725,0.013920693763565,2.0
1.7177162807888233e+18,-0.397262363155,0.0092115744995849,-0.002807891346215,2.0
1.7177162809888233e+18,-0.37974630743,0.0587319052897499,0.0018069137824,2.0
1.7177162811888233e+18,-0.1653056603781,0.0113453014995499,-0.023224783397975,2.0
1.7177162813888233e+18,0.1992106952095238,-0.0276995141261428,-0.0005827955459523,2.0
1.7177162815888233e+18,0.324768260125,-0.0933421029722999,-0.03502127502575,2.0
1.7177162817888233e+18,0.455389666565,-0.1427762538199999,-0.074618583172,2.0
1.7177162819888233e+18,0.376962260895,0.06776173718155,-0.0283561438318,2.0
1.7177162821888233e+18,-0.077008576928,0.0718982937504,-0.0093024149657,2.0
1.7177162823888233e+18,-0.05968978860505,0.01932552463955,0.0027641465769,2.0
1.7177162825888233e+18,-0.506525367505,0.004047621232,0.02225389347915,2.0
1.7177162827888233e+18,-0.52950137258,-0.0116584186429999,0.0017108567515499,2.0
1.7177162829888233e+18,-0.3549145602095238,0.0764018563798523,0.0186276367329999,2.0
1.7177162831888233e+18,0.0064995050037499,0.0212015086046,0.0160626786411499,2.0
1.7177162833888233e+18,0.194044098265,-0.00696052117085,0.02226142948457,2.0
1.7177162835888233e+18,0.3620844498299999,-0.1374480109599999,-0.014945989835555,2.0
1.7177162837888233e+18,0.500025387105,-0.073776029791,-0.0226847705308,2.0
1.7177162839888233e+18,0.436083185675,-0.1353035760045,-0.0608407187506,2.0
1.7177162841888233e+18,-0.0325485204799499,0.0700543863025,0.0119789458931,2.0
1.7177162843888233e+18,-0.2181868771845714,0.0379919232363809,0.0230237670864285,2.0
1.7177162845888233e+18,-0.50116915107,0.0591519850573,0.0857416953895,2.0
1.7177162847888233e+18,-0.57000706791,0.0777490059839,-0.0031821289331,2.0
1.7177162849888233e+18,-0.4712028890850001,0.2595433749379999,-0.0010087482633,2.0
1.7177162851888233e+18,-0.5069859683549999,0.1538609318495,-0.03435360364455,2.0
1.7177162853888233e+18,-0.378432441684,-0.019218776099,-0.0906716419325,2.0
1.7177162855888233e+18,-0.081958581926,0.05626689526505,-0.011614011553205,2.0
1.7177162857888233e+18,-0.0453177219523809,0.0502791403834761,0.0209181454878095,2.0
1.7177162859888233e+18,0.01996419928605,-0.05118571631525,-0.0190046790288499,2.0
1.7177162861888233e+18,-0.0168635366718499,0.0409767906655999,0.0312100032345499,2.0
1.7177162863888233e+18,-0.01814423082445,0.01124398122774,0.0067713570082549,2.0
1.7177162865888233e+18,-0.00281799966483,0.004126450431205,-0.00537413746315,2.0
1.7177162867888233e+18,-0.001759034188595,0.0071848726364799,0.000754638127095,2.0
1.7177162869888233e+18,-0.000436112983075,-0.0026601510354449,0.0035396102931699,2.0
1.7177162871888233e+18,-0.001445429684565,0.002056734019504,-0.00129182556418,2.0
1.7177162873888233e+18,-0.0033071912284119,0.0004753096676666,-0.0019153368415076,2.0
1.7177162875888233e+18,-0.00694244681467,0.0093270754326,0.0026773356136899,2.0
1.7177162877888233e+18,-0.00782199472851,0.002672853751295,0.0031378619955999,2.0
1.7177162879888233e+18,0.003914653352815,-0.0095737333294115,-0.00188225790573,2.0
1.7177162881888233e+18,-0.00431434702767,0.0061034953682265,0.00464888970659,2.0
1.7177162883888233e+18,-0.0078269812165,-0.00761640347775,-0.003716227051175,2.0
1.7177162885888233e+18,0.00554533041995,-0.0021566557000205,-0.00052888402716,2.0
1.7177162887888233e+18,-0.0107582306624761,0.0077224200861142,2.321638607142864e-05,2.0
1.7177162889888233e+18,0.00022384776375,-0.0015663539991599,-0.002558950043715,2.0
1.7177162891888233e+18,-4.615488000700005e-05,-0.00838371360425,0.00245253909374,2.0
1.7177162893888233e+18,0.0028845246299125,-0.000311710615655,0.0008946688845115,2.0
1.7177162895888233e+18,0.0033143874520005,-0.003835770918485,-0.0007816160214815,2.0
1.7177162897888233e+18,-0.0022381083981545,-0.003177828062283,0.000420078507095,2.0
1.7177162899888233e+18,0.001912078156643,-0.001713280403161,0.0009288062806364,2.0
1.7177163135888233e+18,1.21132274569,-0.1514757577374999,-0.052566321945,3.0
1.7177163137888233e+18,0.423038023725,-0.0599892393704999,0.01095821638545,3.0
1.7177163139888233e+18,0.41444116384,-0.0561137754426499,0.00053233953675,3.0
1.7177163141888233e+18,0.0379825763990476,0.0334808428403809,0.0026103241169047,3.0
1.7177163143888233e+18,-0.0390145675708,-0.0460896023987,0.0039929391234499,3.0
1.7177163145888233e+18,-0.14409868628905,0.06822448637435,0.02431431496505,3.0
1.7177163147888233e+18,-0.747008290895,-0.23548833550485,-0.0882305950875,3.0
1.7177163149888233e+18,-0.4638290688399999,0.0224951092391499,-0.0157716979963,3.0
1.7177163151888233e+18,-0.2139623944695,0.1240137111375,0.02149446604325,3.0
1.7177163153888233e+18,0.13254881692435,-0.1930972442135,-0.017278572603715,3.0
1.7177163155888233e+18,0.3799434304190476,-0.1115509897178095,-0.0634134308029523,3.0
1.7177163157888233e+18,0.6007787406449998,0.083982694791,0.01803250749355,3.0
1.7177163159888233e+18,0.46996075064,-0.00746914698085,-0.0032446800152,3.0
1.7177163161888233e+18,0.0037507771323499,-0.0385682351866499,0.01991857488206,3.0
1.7177163163888233e+18,-0.10917691215705,0.1416694293676499,0.0329460993531,3.0
1.7177163165888233e+18,-0.559633004665,-0.0018615424440099,0.0720167604909,3.0
1.7177163167888233e+18,-0.6065136656050001,-0.1548857036985,-0.03005806484605,3.0
1.7177163169888233e+18,-0.3813024975299999,0.05571557052425,-0.0234787315822,3.0
1.7177163171888233e+18,-0.0437940052257142,0.1088788207795238,0.0077047767889333,3.0
1.7177163173888233e+18,0.25242972635,0.0312485633780649,-0.0100181323005999,3.0
1.7177163175888233e+18,0.515274716915,-0.0192010227356,-0.0327621297444499,3.0
1.7177163177888233e+18,0.6719226449600001,-0.1259115343945,-0.00648768792129,3.0
1.7177163179888233e+18,0.1242938913375,-0.0893111118413999,-0.01553546013225,3.0
1.7177163181888233e+18,-0.078911354722765,-0.0616555845895,0.0047175022774,3.0
1.7177163183888233e+18,-0.456001765285,0.1705405687124999,0.101805587113,3.0
1.7177163185888233e+18,-0.5931206373857144,0.0711439720304761,0.0310936773334761,3.0
1.7177163187888233e+18,-0.5507980346750001,-0.0969190570506999,-0.07618182957526,3.0
1.7177163189888233e+18,-0.1558868015205,0.0711826460424999,-0.0318639146842999,3.0
1.7177163191888233e+18,0.08909311078835,0.04058455199941,0.0297688176975999,3.0
1.7177163193888233e+18,0.2602616675335,0.203579821301,0.0698307303263,3.0
1.7177163195888233e+18,0.674485901,0.0533178027812,0.0354402346536499,3.0
1.7177163197888233e+18,0.5624232932950001,-0.0143447018778999,0.0660897598575499,3.0
1.7177163199888233e+18,-0.01877746009435,-0.113596474009,-0.017061436503315,3.0
1.7177163201888233e+18,-0.0290087925807619,0.0399462366277619,0.013242280775238,3.0
1.7177163203888233e+18,-0.4573643483199999,0.1020284213114999,0.0027124583483999,3.0
1.7177163205888233e+18,-0.5591751515800001,-0.03877804197795,-0.02492567668675,3.0
1.7177163207888233e+18,-0.461585071685,-0.0820255042975,-0.0225821588652999,3.0
1.7177163209888233e+18,-0.1984106510849999,0.0053281767040499,-0.007680495582735,3.0
1.7177163211888233e+18,0.0170630385999999,0.00546336745615,0.0312695960176499,3.0
1.7177163213888233e+18,0.282973617315,0.00210789021855,-0.03252761299041,3.0
1.7177163215888233e+18,0.3650533507190476,-0.1761581326380952,-0.1109000994390476,3.0
1.7177163217888233e+18,0.4455284968,0.0030732897971899,0.0162985141727745,3.0
1.7177163219888233e+18,0.547393906115,-0.0220444838281,0.00166009633029,3.0
1.7177163221888233e+18,0.2231959555244999,-0.125269964249,-0.077324095645,3.0
1.7177163223888233e+18,0.017100740271,0.00253971271495,-0.0025375393567049,3.0
1.7177163225888233e+18,0.05251709412358,0.03240614382075,0.0171650142174,3.0
1.7177163227888233e+18,0.0033226856147499,0.0179768758128649,0.01249491968195,3.0
1.7177163229888233e+18,-0.003779669790305,0.0003829286783,-0.00532760657345,3.0
1.7177163231888233e+18,0.0072967138980285,-0.0108450127413,0.0114740555825238,3.0
1.7177163233888233e+18,0.00012077005806,-0.02104786718235,0.001650870905265,3.0
1.7177163235888233e+18,-0.0072114441605935,-0.00701750144354,0.00966781713127,3.0
1.7177163237888233e+18,0.012812547013565,-0.00349339523796,0.0151017306487,3.0
1.7177163239888233e+18,-0.00775149920985,-0.002251113323515,0.0033350643356,3.0
1.7177163241888233e+18,-0.0082121656858,-0.00665234589212,0.00321642195359,3.0
1.7177163243888233e+18,0.0032648989486294,0.0014349876026999,-0.000414980822047,3.0
1.7177163245888233e+18,,,,3.0
