Timestamps,Acc_X,Acc_Y,Acc_Z,Label,Set_Time
1.7177471981162427e+18,0.115338723315238,3.556675284380953,9.236385694190476,1,9400000000.0
1.7177471983162427e+18,-0.1174906769155,3.5695745315,9.0412436371,1,9400000000.0
1.7177471985162427e+18,0.3430640945429999,3.638880409200001,9.0624620133,1,9400000000.0
1.7177471987162427e+18,0.1354159011741,3.5806664657000007,9.1214767915,1,9400000000.0
1.7177471989162427e+18,0.03824546813875,3.5287394485000005,9.1471858292,1,9400000000.0
1.7177471991162427e+18,0.054097503664,4.00400862125,7.403604125950001,1,9400000000.0
1.7177471993162427e+18,0.211614944495,2.7433152466000004,7.2027293472,1,9400000000.0
1.7177471995162427e+18,-0.7560777283104763,-0.7327548,9.023378644952382,1,9400000000.0
1.7177471997162427e+18,-1.374958259618,-3.4345178833000007,12.181817779,1,9400000000.0
1.7177471999162427e+18,-1.291903472859,-2.6357264785,12.5745036855,1,9400000000.0
1.7177472001162427e+18,-0.41531884012,-2.5705894318,9.88653584255,1,9400000000.0
1.7177472003162427e+18,0.2824551315935,-0.9675130462748,10.1055454107,1,9400000000.0
1.7177472005162427e+18,0.0680110702349999,-0.7523504791885,9.4985875853,1,9400000000.0
1.7177472007162427e+18,0.413934219386,2.59349180598,5.3766990966,1,9400000000.0
1.7177472009162427e+18,-0.0883163452090476,0.7203448922390476,8.414815586809524,1,9400000000.0
1.7177472011162427e+18,-1.1189606094099998,-2.4953184586000003,10.098352867650002,1,9400000000.0
1.7177472013162427e+18,-1.364165702905,-3.8198989791,13.0317952415,1,9400000000.0
1.7177472015162427e+18,-1.2445494460700002,-2.7566674804500004,10.60549076805,1,9400000000.0
1.7177472017162427e+18,-1.137926170334,-1.4323264617949998,9.50914064045,1,9400000000.0
1.7177472019162427e+18,-1.2631333007610002,-0.9000483398449999,9.9841104355,1,9400000000.0
1.7177472021162427e+18,-0.3697386245724998,1.306887313885,6.736351684899999,1,9400000000.0
1.7177472023162427e+18,-0.5007943071176191,1.6029594857071423,7.195736389238096,1,9400000000.0
1.7177472025162427e+18,-1.42057589723,-1.6535065154399995,9.690346321000002,1,9400000000.0
1.7177472027162427e+18,-3.0434561004500003,-3.5580634689499995,11.573086144,1,9400000000.0
1.7177472029162427e+18,-2.8799810486,-2.8103383713,11.69622008475,1,9400000000.0
1.7177472031162427e+18,-1.1160641326845,-2.2699770582999994,9.51647538745,1,9400000000.0
1.7177472033162427e+18,-1.30999335473,-0.64230681612485,9.7953754119,1,9400000000.0
1.7177472035162427e+18,-1.9210002594472,-0.0541948013275,9.36184693935,1,9400000000.0
1.7177472037162427e+18,-0.605573204049,2.4903113709,5.56162454225,1,9400000000.0
1.7177472039162427e+18,-0.9188178797614286,0.7799780273763333,8.23140413557143,1,9400000000.0
1.7177472041162427e+18,-0.460809242245,-2.1260438690000005,9.897612807799998,1,9400000000.0
1.7177472043162427e+18,-0.55452935031,-4.035772567700001,12.469953597,1,9400000000.0
1.7177472045162427e+18,-0.622173683165,-2.51156716915,11.3709090729,1,9400000000.0
1.7177472047162427e+18,-0.6459143142549999,-1.5371759261999998,9.7221177517,1,9400000000.0
1.7177472049162427e+18,-0.8527317352600002,-0.8124130783550001,9.884095916300002,1,9400000000.0
1.7177472051162427e+18,-0.1595008163723,0.06218069459,9.55773708355,1,9400000000.0
1.7177472053162427e+18,-0.2857914079947619,2.636474565809524,5.247922603095238,1,9400000000.0
1.7177472055162427e+18,-0.504712944025,-0.2276690597574999,8.802572456350003,1,9400000000.0
1.7177472057162427e+18,-0.8725879440470001,-2.5881179811,10.3812645491,1,9400000000.0
1.7177472059162427e+18,-0.3117267608905,-3.78544063565,12.7019112405,1,9400000000.0
1.7177472061162427e+18,0.2090852050649999,-2.527164734,10.6180346826,1,9400000000.0
1.7177472063162427e+18,-0.1015413436939999,-1.2491448898750002,9.73749078375,1,9400000000.0
1.7177472065162427e+18,0.0228050766749999,-1.292584556575,10.17045792355,1,9400000000.0
1.7177472067162427e+18,0.1273066929857143,0.1082035610057143,9.394022172857142,1,9400000000.0
1.7177472069162427e+18,-0.36348912048405,2.5597145461499995,5.261693252650001,1,9400000000.0
1.7177472071162427e+18,-0.5401966552524999,0.04162843321,8.876571075350002,1,9400000000.0
1.7177472073162427e+18,-0.271632637002,-2.6828859100999995,10.360285674950005,1,9400000000.0
1.7177472075162427e+18,-0.280890884395,-3.6791840973,12.256198105,1,9400000000.0
1.7177472077162427e+18,0.051859657293,-2.7028019944,10.7967630158,2,9400000000.0
1.7177472079162427e+18,0.168497108408,-0.7396643600449998,9.139431953350002,2,9400000000.0
1.7177472081162427e+18,-0.1919982375409999,-0.415513435382,10.432854766800002,2,9400000000.0
1.7177472083162427e+18,-0.8406090872285714,0.2742725045319047,9.973445827333332,2,9400000000.0
1.7177472085162427e+18,-0.9139768753943,2.88339395135,5.24698633575,2,9400000000.0
1.7177472087162427e+18,-0.0636102218646,0.7436086578970003,8.500328476,2,9400000000.0
1.7177472089162427e+18,-1.4708638228055,-1.627236145,10.20796991745,2,9400000000.0
1.7177472091162427e+18,-2.2081481323000003,-3.2948732758,11.786467415,2,9400000000.0
1.7177472093162427e+18,-0.8989556121749999,-2.2559362564,11.347168441,2,9400000000.0
1.7177472095162427e+18,-1.1387195205795,-1.8607655182,9.40334065235,2,9400000000.0
1.7177472097162427e+18,-1.0283971513595238,-1.478332933638095,10.118950391285711,2,9400000000.0
1.7177472099162427e+18,-0.6055881729715,-0.7017182693199999,9.9735798336,2,9400000000.0
1.7177472101162427e+18,-0.2622770919955,2.193261589106,5.83582434075,2,9400000000.0
1.7177472103162427e+18,-0.265637603735,1.0247614974794998,8.1392044372,2,9400000000.0
1.7177472105162427e+18,-1.1271485824849998,-1.8062488861250003,9.659390693449998,2,9400000000.0
1.7177472107162427e+18,-1.5862513733049997,-3.4064587326499995,11.838686325,2,9400000000.0
1.7177472109162427e+18,-1.144699584945,-2.9967382508000004,11.3428648911,2,9400000000.0
1.7177472111162427e+18,-1.1239555794285716,-1.726352887790476,9.84866958652381,2,9400000000.0
1.7177472113162427e+18,-1.8159187774156504,-0.5908363494584,9.699447394800002,2,9400000000.0
1.7177472115162427e+18,-2.68451751708,0.115918945306,10.143656158750002,2,9400000000.0
1.7177472117162427e+18,-0.9959464187160002,1.611563735925,6.772000053350001,2,9400000000.0
1.7177472119162427e+18,0.1908306655890499,2.32075895695,6.4635739289,2,9400000000.0
1.7177472121162427e+18,-0.6830895080749,-1.28273503883,10.1552645178,2,9400000000.0
1.7177472123162427e+18,-1.35562596127,-3.05097795865,11.375788924999998,2,9400000000.0
1.7177472125162427e+18,-0.623325217122857,-2.7565962000476185,11.615944518333333,2,9400000000.0
1.7177472127162427e+18,-0.2747761001761,-1.612693885785,10.048274506,2,9400000000.0
1.7177472129162427e+18,-0.994389656006,-0.3532878341975,9.994438957300002,2,9400000000.0
1.7177472131162427e+18,-1.428157631005,0.0345631256128999,10.10892837515,2,9400000000.0
1.7177472133162427e+18,-0.989232879675,1.40703655246,8.07777218615,2,9400000000.0
1.7177472135162427e+18,-0.0866847381725,2.32538433835,5.446955497699999,2,9400000000.0
1.7177472137162427e+18,-0.239681579569,-0.633093475205,9.47918792725,2,9400000000.0
1.7177472139162427e+18,-1.627730117765,-2.9242290344,11.4573617935,2,9400000000.0
1.7177472141162427e+18,-1.5675901794047618,-2.577782331238096,12.405502625238094,2,9400000000.0
1.7177472143162427e+18,-1.2920606461355,-1.471080871665,9.64933909645,2,9400000000.0
1.7177472145162427e+18,-0.8130268019999999,-0.5656362533649999,9.5237203221,2,9400000000.0
1.7177472147162427e+18,-0.554499412588,-0.2288516006465,10.4979394224,2,9400000000.0
1.7177472149162427e+18,-0.9842856673734998,0.206772514321,10.0034951241,2,9400000000.0
1.7177472151162427e+18,-0.3700903930684999,2.36482731627,5.71640267935,2,9400000000.0
1.7177472153162427e+18,-0.55773268885,0.9533899155045,8.1060708389,2,9400000000.0
1.7177472155162427e+18,-1.5439464895619046,-1.6526347569761903,10.065490133904762,2,9400000000.0
1.7177472157162427e+18,-1.7964742126600002,-3.3138463212,11.76703033415,2,9400000000.0
1.7177472159162427e+18,-1.5229405288249998,-2.4877442092,10.81981507895,2,9400000000.0
1.7177472161162427e+18,-0.3185525664693001,-1.715500099247,9.6743895026,2,9400000000.0
1.7177472163162427e+18,-1.16430880736,-0.52980825805,9.629909500099998,2,9400000000.0
1.7177472165162427e+18,-1.3316907348650002,-0.1393302612264999,10.122916786649998,2,9400000000.0
1.7177472167162427e+18,-0.8112904130299998,-0.014669494629,10.40140516635,2,9400000000.0
1.7177472169162427e+18,-1.59047116962,2.289203861738095,5.556580745104761,2,9400000000.0
1.7177472171162427e+18,-1.3175825728714998,1.966909790085,8.2593745428,2,9400000000.0
1.7177472173162427e+18,-1.2894485779800002,-1.1456800460349998,9.510510292050002,3,9800000000.0
1.7177472175162427e+18,-2.22986796575,-2.1371058654500006,11.21800204495,3,9800000000.0
1.7177472177162427e+18,-1.5583643645500005,-2.07258254243,11.73796078395,3,9800000000.0
1.7177472179162427e+18,-1.515583328305,-1.627797477755,9.882209839200002,3,9800000000.0
1.7177472181162427e+18,-0.8842337264940001,-0.1583332443109999,10.10690009255,3,9800000000.0
1.7177472183162427e+18,-1.0832149429200002,0.0163609771789999,10.21406224885,3,9800000000.0
1.7177472185162427e+18,-0.947166072317143,1.1191227722445238,8.685103519857142,3,9800000000.0
1.7177472187162427e+18,-0.748398696955,2.4542064515,5.89293058775,3,9800000000.0
1.7177472189162427e+18,-0.8984017639345,-0.3398383026604999,9.3859842455,3,9800000000.0
1.7177472191162427e+18,-1.434624183685,-2.0158355484,10.787691879500002,3,9800000000.0
1.7177472193162427e+18,-1.1564726028419998,-2.719859024,11.41643689735,3,9800000000.0
1.7177472195162427e+18,-0.8007448425270001,-2.2482123183,10.4657788013,3,9800000000.0
1.7177472197162427e+18,-1.407844871495,-1.0561886444000002,9.433802307700002,3,9800000000.0
1.7177472199162427e+18,-1.1628247506481906,-0.0582645525290476,10.373193120619048,3,9800000000.0
1.7177472201162427e+18,-1.1274704132663995,0.47549370577,10.0850829616,3,9800000000.0
1.7177472203162427e+18,-0.7794291687275001,2.0780910873300003,6.817595237500001,3,9800000000.0
1.7177472205162427e+18,-0.502931648284,2.412937271075,6.9128496551500005,3,9800000000.0
1.7177472207162427e+18,-1.2063937911899998,-0.614255149863,9.7113027417,3,9800000000.0
1.7177472209162427e+18,-1.561507827695,-2.0692145462000004,11.4854883035,3,9800000000.0
1.7177472211162427e+18,-1.1319760436990003,-1.727228210445,11.9378476185,3,9800000000.0
1.7177472213162427e+18,-1.5714963421761907,-1.5798005022285715,9.71041423190476,3,9800000000.0
1.7177472215162427e+18,-1.831598670941,-0.2188973007239999,9.4415187606,3,9800000000.0
1.7177472217162427e+18,-1.509723014875,0.0657358016855,10.17255356605,3,9800000000.0
1.7177472219162427e+18,-1.153740783745,0.92685010532,9.885001534049998,3,9800000000.0
1.7177472221162427e+18,-0.8759484557849999,2.44090660855,6.255252136199999,3,9800000000.0
1.7177472223162427e+18,-0.633550026,2.0651430129115003,7.54375767515,3,9800000000.0
1.7177472225162427e+18,-1.4872697066589995,-0.5844446411555,10.2051033791,3,9800000000.0
1.7177472227162427e+18,-1.7731452254999998,-1.52660790245,11.4648162915,3,9800000000.0
1.7177472229162427e+18,-0.9127305384704762,-1.3379320417285712,11.655918535428572,3,9800000000.0
1.7177472231162427e+18,-1.206842857385,-1.6969237289049997,9.576380812900002,3,9800000000.0
1.7177472233162427e+18,-1.2897704086205002,-0.7838973770400001,9.5391906503,3,9800000000.0
1.7177472235162427e+18,-1.1786639558545002,-0.4592150573899999,10.0903220671,3,9800000000.0
1.7177472237162427e+18,-0.931288375867,0.2176473999079999,10.1786309282,3,9800000000.0
1.7177472239162427e+18,-0.29914542385,1.13023217016,7.968911064149999,3,9800000000.0
1.7177472241162427e+18,-0.16768878928,2.2546115113,6.338052451849999,3,9800000000.0
1.7177472243162427e+18,-1.518698992042857,0.3041033281719048,9.628783983571427,3,9800000000.0
1.7177472245162427e+18,-0.824612709068,-1.03344344331,10.9227260746,3,9800000000.0
1.7177472247162427e+18,-0.37611536398,-0.8610693970049998,11.52067263695,3,9800000000.0
1.7177472249162427e+18,0.1664763107385,-1.520014114425,9.80438667245,3,9800000000.0
1.7177472251162427e+18,-0.1821786575385,-0.843473487915,9.513653755400002,3,9800000000.0
1.7177472253162427e+18,-0.55064492799,-0.2523452453664999,9.8733183295,3,9800000000.0
1.7177472255162427e+18,-1.1515403594800002,-0.0589549026418999,9.81714763645,3,9800000000.0
1.7177472257162427e+18,-1.048719177209524,-0.012003609793619,9.87822954452381,3,9800000000.0
1.7177472259162427e+18,-0.79308078002,0.1642010421785,9.79970890025,3,9800000000.0
1.7177472261162427e+18,-0.9147851944,0.26038352966,9.74216107185,3,9800000000.0
1.7177472263162427e+18,-0.90091653445,0.348894470215,9.74406960295,3,9800000000.0
1.7177472265162427e+18,-0.94163935093,0.4079915771449999,9.690802871700004,3,9800000000.0
1.7177472267162427e+18,-0.8905655594049999,0.41424856568,9.634662117,3,9800000000.0
1.7177472269162427e+18,-0.8888195473642855,0.3173935481457143,9.736588373928573,3,9800000000.0
1.7177472271162427e+18,,,,3,9800000000.0
