Timestamps,Gyro_X,Gyro_Y,Gyro_Z
1.7176985116944077e+18,0.0019486590749700004,-0.08948920979345,0.021544526352080002
1.7176985118944077e+18,0.21726897936895,-0.695836094196,-0.36308775128145
1.7176985120944077e+18,-1.7931140817815003,-2.2108045011249997,-0.024239381021500007
1.7176985122944077e+18,-1.0449819951735,-2.022513713725,2.49859732985
1.7176985124944077e+18,-1.941900304,-0.35824562750399996,3.8122988342999995
1.7176985126944077e+18,-1.4787468852115,-1.48156489725,3.2344929636
1.7176985128944077e+18,0.33390303551,-4.5625935971,-0.7180769186414999
1.7176985130944077e+18,1.5866161122149998,-0.4831911561606,1.065141456461
1.7176985132944077e+18,0.4395634753284211,0.4000696389423158,0.5731584147473684
1.7176985134944077e+18,0.5101664449734999,-0.2205341839225,0.97124316401
1.7176985136944077e+18,0.8715660174230001,0.0822839688415,-0.34255520261600003
1.7176985138944077e+18,-0.0190451583146,0.219924241891,-0.014324322294000002
1.7176985140944077e+18,-0.1543232969905,0.361952013155,0.04403499313700002
1.7176985142944077e+18,-0.21584052239250004,0.33198975472500003,-0.04807020069269999
1.7176985144944077e+18,-0.13295949422835,0.29050616027695003,0.17790533248400003
1.7176985146944077e+18,-0.010662715650200001,0.12978942465819998,0.31648620367
1.7176985148944077e+18,-0.0686160416168421,-0.009549284942526314,0.8087882963789473
1.7176985150944077e+18,-0.045886578335499986,-0.035564676675,-0.013703314955
1.7176985152944077e+18,0.00862858851855,0.01992059797175,0.004252047186099997
1.7176985154944077e+18,0.0052789785551000026,-0.0647309238945,0.036837625265499996
1.7176985156944077e+18,-0.05579416870705001,-0.369088815155,0.02966377344025
1.7176985158944077e+18,-0.208507788877,-0.08952974100269999,0.29796437635255
1.7176985160944077e+18,-0.0063098895334500055,-0.08703405957669999,0.21906230465760004
1.7176985162944077e+18,0.039496955529799996,0.0958699597194,0.0341228411135
1.7176985164944077e+18,0.12789230933445,-0.09518051466295,-0.05292467198145
1.7176985166944077e+18,0.2861547407315789,-0.04398009783831579,-0.16760851991421055
1.7176985168944077e+18,0.15050701187275,0.27537216115049995,-0.097364903234
1.7176985170944077e+18,-0.1747150693045,-0.08564299168300002,0.10426113473809999
1.7176985172944077e+18,0.0944867319387,0.020236348717949992,0.07909464631275001
1.7176985174944077e+18,0.016807133907150003,-0.0404584432975,-0.08106510124440001
1.7176985176944077e+18,-0.33415173980799995,-0.16078581078909998,0.17057803646200004
1.7176985178944077e+18,-0.4300245165950001,-0.119983254377,0.080142044090575
1.7176985180944077e+18,0.03478217125500001,-0.32238478956999994,-0.174126002567
1.7176985182944077e+18,-0.074435176303,-0.21471494402105265,-0.2831920489289474
1.7176985184944077e+18,-0.14615943179999996,-0.100776349739,0.148179203635
1.7176985186944077e+18,0.0865599898395,0.207685309834,0.0730736369267
1.7176985188944077e+18,0.015099393906649999,0.0785840672003,-0.08896390707449998
1.7176985190944077e+18,-0.345516926795,-0.180896665253,0.0668880260064
1.7176985192944077e+18,-0.24673404204599994,0.3532492489390501,0.065558874796
1.7176985194944077e+18,0.29627797063749994,-0.462187418607,-0.011712799126500001
1.7176985196944077e+18,0.2101189425166,-0.024178093644200017,0.01593614904865001
1.7176985198944077e+18,0.17305292188000002,0.14238019232099997,0.030253870837500002
1.7176985200944077e+18,-0.17797079800105264,0.11442810209421052,0.01912169222210526
1.7176985202944077e+18,-0.233802737203,0.07567033523285001,0.15314735679460897
1.7176985204944077e+18,0.43960241243899983,-0.45817058952399997,-0.0205497938195
1.7176985206944077e+18,0.1581609278925,-0.16981155462000003,-0.1339309668235
1.7176985208944077e+18,0.025484062198299996,0.15539246924284997,0.09597755255960001
1.7176985210944077e+18,-0.5065207555900001,0.16113976541275,0.11103068096799999
1.7176985212944077e+18,0.0495807890549,0.23378547274157996,0.2033924259245
1.7176985214944077e+18,0.5514125654720001,-0.49203772426349995,-0.10256390862325002
1.7176985216944077e+18,0.06267812119560526,0.1508571740952631,-0.06970007599947367
1.7176985218944077e+18,-0.09175522317064999,0.3137852144405,0.08466371549135002
1.7176985220944077e+18,-0.62646241337,0.3929625265355,0.0312540482266
1.7176985222944077e+18,-0.10698537303403002,0.045105769199,0.13471772176400001
1.7176985224944077e+18,0.58716166839,-0.3289277356135,-0.063225423454
1.7176985226944077e+18,0.39039833657699996,-0.328831985622,-0.06609463798400002
1.7176985228944077e+18,0.18992485443685,0.2529017264462,-0.09379685739730001
1.7176985230944077e+18,0.144987403973,0.20001383163149997,-0.23511765334023993
1.7176985232944077e+18,-0.0468818593745,0.196422585279,0.07886403371299999
1.7176985234944077e+18,-0.15923607510978952,-0.004403440183684209,-0.12165214905736843
1.7176985236944077e+18,0.0695686767767,0.05842405224855,0.24262372135925
1.7176985238944077e+18,0.0261968236636,0.36029359185825,-0.10110396763639999
1.7176985240944077e+18,0.03652208582535,-0.08654559728700001,0.12077713906750001
1.7176985242944077e+18,-0.04401671467399999,-0.03213692993918,0.08700310499120001
1.7176985244944077e+18,-0.062297222483699996,0.099429949375,-0.01418136331565
1.7176985246944077e+18,-1.6227935379999926e-05,-0.054436803447479996,-0.05675669049725
1.7176985248944077e+18,0.013967424864550501,-0.0065511941436500005,-0.007133407366819999
1.7176985250944077e+18,0.035755593475894736,-0.03220630095347369,0.015383609483631579
1.7176985252944077e+18,0.010787595085725002,0.007815142767299998,-0.013041866989599998
1.7176985254944077e+18,-0.017080470570834998,0.00907138967912,0.01825164835825
1.7176985256944077e+18,-2.6140420485000047e-05,0.010403708054359998,0.009267394186999999
1.7176985258944077e+18,6.0704094419999604e-05,0.0098873240396,0.00881997721719
1.7176985260944077e+18,0.02005055176505,0.005863105388680001,0.014722524815800001
1.7176985262944077e+18,0.030677633545999998,-0.0022432708063279995,0.014817246375204998
1.7176985264944077e+18,0.01958546540625,-0.0031498256729000002,0.00393350363
1.7176985266944077e+18,0.02997392159885,-0.0006616055503000002,-0.0040031720648500005
1.7176985268944077e+18,0.02515391191789474,-0.0005952387085315792,-0.0009773014431736842
1.7176985270944077e+18,0.03340496272,0.01401269271724,-0.008488991378979998
1.7176985272944077e+18,0.017922142427049998,0.020283479777550004,-0.0103311413439
1.7176985274944077e+18,-0.013993607299014995,0.004749603639824999,6.993107971499992e-05
1.7176985276944077e+18,0.0029479546593999995,0.0026685413438704998,-0.003141211729685
1.7176985278944077e+18,-0.0208414371823,-0.005842089374374,-0.00116581044859269
1.7176985280944077e+18,-0.10545299248999998,0.040150124486299996,-0.0028977135661649995
1.7176985282944077e+18,-0.02263553394,0.007409200001700001,-0.0043498903628249996
1.7176985284944077e+18,-0.025552479403157895,-0.013926372617757895,-0.007284976149768421
1.7176985286944077e+18,-0.022969349894,0.0029683604484995003,-0.0013229283969790001
1.7176985288944077e+18,-0.011586915224300002,0.005830018432078,0.0035156429978650005
1.7176985290944077e+18,-0.012371737649700001,0.0007825260401944998,-0.003971535933595
1.7176985292944077e+18,-0.0158646145604,7.137403598949995e-05,0.0016289610648539503
1.7176985294944077e+18,0.003215441073315,0.002388120465205001,-0.0012702377862389997
1.7176985296944077e+18,-0.0009393051034,-0.00108586098042,-0.0007426711380700001
1.7176985298944077e+18,-0.006362150586019501,-0.0094007431064,0.00020439624792999988
1.7176985300944077e+18,0.00778535650985,-0.011124534438609997,0.0066837414864549995
1.7176985302944077e+18,0.02490557945894737,-0.009525103469526317,-0.00658883748668421
1.7176985304944077e+18,0.01852204757715,-0.005105372681335001,0.0006741041899300002
1.7176985306944077e+18,0.009170251351644999,-0.0010276067294500003,0.00595239438164
1.7176985308944077e+18,-0.019259607628849998,-0.0268965548831895,-0.007829882449380002
1.7176985310944077e+18,0.0463803195888,0.014801725186499998,0.05411824709725501
1.7176985312944077e+18,-0.0130418136477,-0.07354873306629998,-0.0218949487195
1.7176985314944077e+18,0.006678848329100001,-0.05881156527805,-0.0877881521345
1.7176985316944077e+18,0.045661061472600004,0.071382861158,-0.10141895824634999
1.7176985318944077e+18,0.04640728112478948,-0.031940504490368414,0.03309288025263158
1.7176985320944077e+18,-0.0010978085929500008,-0.04166687829940001,0.05323725742965
1.7176985322944077e+18,-0.01055066706587,0.061238075788649995,-0.058075967058299996
1.7176985324944077e+18,-0.0217532211678,0.13193142767599997,-0.031174466806399997
1.7176985326944077e+18,0.03370731377555,0.025649010668000006,0.085939597344
1.7176985328944077e+18,-0.0294265515637,0.12909449749670002,0.08677802793294997
1.7176985330944077e+18,-0.0182018115655,-0.003746877053300001,0.032574969716365004
1.7176985332944077e+18,-0.037495210465200005,-0.12081040711499999,0.019525336544750003
1.7176985334944077e+18,0.022265055274984995,-0.057449854714049994,0.028946032211495
1.7176985336944077e+18,0.07278729262252631,-0.12129573063631578,0.03943377179210526
1.7176985338944077e+18,0.0495603950703,-0.26177607326850005,0.10760837477049998
1.7176985340944077e+18,-0.04027996854799999,0.36362355137749997,-0.021295551309499998
1.7176985342944077e+18,-0.0222770772656,0.0891596277703,-0.0063203145052
1.7176985344944077e+18,-0.014964054478250003,-0.09445316420897,-0.019246620392900003
1.7176985346944077e+18,0.027839340874125002,0.009494768236499996,0.041049018595950004
1.7176985348944077e+18,0.010941917156350001,-0.06989751464399997,0.00832633322434
1.7176985350944077e+18,0.047197691094900004,-0.06857724334885,0.1841301670735
1.7176985352944077e+18,0.04649495274705263,-0.05134104723888948,0.1357128190742105
1.7176985354944077e+18,0.09633064177150001,0.04898110328,0.08616647194873998
1.7176985356944077e+18,0.0012064153266500039,-0.1344941063295,-0.012294471822499996
1.7176985358944077e+18,0.12357711759250001,0.0661180632075,-0.0492590468485
1.7176985360944077e+18,0.04711676500624999,-0.15837499672165,-0.16208338402199998
1.7176985362944077e+18,-0.15580741399,0.2668506927845001,-0.018221498564000002
1.7176985364944077e+18,-0.09394085873850001,0.07333555193765,0.039350015690650005
1.7176985366944077e+18,-0.01845382389154,0.1008114853925,-0.054884074441025
1.7176985368944077e+18,-0.053510364424,-0.0084713896409,-0.017994625540199993
1.7176985370944077e+18,0.010770071273894736,-0.08042884892578947,0.05140379973263158
1.7176985372944077e+18,0.021795053849399997,-0.04104991732325,0.017356925526934998
1.7176985374944077e+18,0.01388788153365,0.013544541109550001,0.00762739786835
1.7176985376944077e+18,-0.053533493546764996,0.050977256995515495,0.03268980919415
1.7176985378944077e+18,-0.024984469008650003,0.020075717010150002,0.022276408924000003
1.7176985380944077e+18,-0.0009603604209950002,-0.03864745055310001,-0.013878012565545
1.7176985382944077e+18,-0.009116154862299998,-0.044995629707199995,-0.03330654213274999
1.7176985384944077e+18,0.03195212544005,0.032878247032749996,0.03194175199709
1.7176985386944077e+18,-0.03348538037087421,0.024821049630684218,0.022985537389910524
1.7176985388944077e+18,-0.007925846077850001,-0.03689486228240001,0.04337307633950001
1.7176985390944077e+18,-0.04259402141799999,-0.032732476082150005,-0.09770956162800001
1.7176985392944077e+18,-0.15617346595349998,-0.02454997468718,0.0145206250248
1.7176985394944077e+18,0.012688722400399999,0.10398905193449999,0.025602010634
1.7176985396944077e+18,0.00700673312,-0.0542080304785,-0.07326602661064999
1.7176985398944077e+18,0.005630662710999999,-0.048844744610450005,-0.013924622780499999
1.7176985400944077e+18,0.0411324198586,0.07307275030899998,0.028105005994449993
1.7176985402944077e+18,0.004646949760800002,-0.0052601520882,-0.038940622517350004
1.7176985404944077e+18,-0.01495131379605263,0.04941811883052632,-0.014884633280531582
1.7176985406944077e+18,-0.013634854554735001,0.036458927602100004,-0.05812992018186001
1.7176985408944077e+18,0.0105432097217,0.018415876245599996,0.00761640754015
1.7176985410944077e+18,0.017275764606400006,-0.015891691879610002,-0.00149568251795
1.7176985412944077e+18,-0.01140742694278,-0.00401722192815,-0.011064278031325002
1.7176985414944077e+18,0.023733307921765,0.0346561895685,0.0026126357954250005
1.7176985416944077e+18,0.003326208656805,0.01591294701235,0.013115312648200001
1.7176985418944077e+18,0.002029730274915,-0.005423914280000001,0.0227776701555
1.7176985420944077e+18,-0.00829878788856842,-0.00915186246863158,0.011035902376736843
1.7176985422944077e+18,0.009716697817865,0.004352227015555,0.00822424623145
1.7176985424944077e+18,-0.006725647998985,-0.007836696796545,0.0033664510819500005
1.7176985426944077e+18,-0.004729305825209999,-0.0030344202186149997,0.0011609027163000001
1.7176985428944077e+18,-0.004867123160849999,-0.015392292384715003,0.00018879473212999996
1.7176985430944077e+18,0.0034531422771999993,-0.013862953835449998,-0.007122445782215001
1.7176985432944077e+18,0.01568324502965,-0.007356876227050002,-0.004968274943879999
1.7176985434944077e+18,0.027567958459500004,-0.007777737069635001,-0.005511407542690001
1.7176985436944077e+18,0.0276780347812,-0.0011531380347,-0.00405998958732
1.7176985438944077e+18,-0.005660432280408422,0.004381398645515789,-0.0007239755634947368
1.7176985440944077e+18,-0.008591099769750001,0.012558718072625,0.0015531571581229998
1.7176985442944077e+18,-0.01053221484225,0.012434655240574998,0.00024374212367
1.7176985444944077e+18,-0.009131920581300001,0.014249562728049999,0.00058365601576
1.7176985446944077e+18,-0.0480401020005,0.00278508922755,-0.0030764000730254997
1.7176985448944077e+18,-0.09186341576950001,0.03489284520178,-0.0005325297351199997
1.7176985450944077e+18,-0.08160749823749999,0.034565021237850005,0.011868046794949998
1.7176985452944077e+18,-0.019472617842949996,-0.0063336949100849995,0.004653403279499999
1.7176985454944077e+18,0.04989067817894737,-0.013676923331968422,0.006013074619189473
1.7176985456944077e+18,0.06187881957650001,-0.0203290751199,-0.00605137581028
1.7176985458944077e+18,0.0547834733485,-0.012680628383740001,0.0031141753892709994
1.7176985460944077e+18,0.028675602329800005,-0.0163478895205,-0.0007513334042623998
1.7176985462944077e+18,0.0060421290800045015,0.002367062552625,-0.0031688476683155
1.7176985464944077e+18,0.0020439002432249996,0.0112855772485675,-0.00224570580759
1.7176985466944077e+18,-0.00609464482391,0.007061341708180001,-0.008241783512895002
1.7176985468944077e+18,-0.013488769601849998,-0.001368282502735,-0.0003061441474950001
1.7176985470944077e+18,-0.004824211890639999,0.007550206210095001,0.0052997446619499995
1.7176985472944077e+18,-0.010676311880210527,-0.005040387671783157,-0.012023376532210526
1.7176985474944077e+18,0.034598066913070005,-0.0090867192019,-0.0002416983945499997
1.7176985476944077e+18,-0.011325816426209999,0.0162830921126,-0.004201720946015
1.7176985478944077e+18,-0.01823329292365,0.014887107208900002,0.006534460466295
1.7176985480944077e+18,-0.016712734009,0.0117549874593083,0.0023728693719149998
1.7176985482944077e+18,-0.013340456737950002,0.04631357523789499,0.0009090434177299999
1.7176985484944077e+18,-0.0199087667277,0.024560618283649995,-0.0078425058396
1.7176985486944077e+18,-0.0029948317319515,-0.022859412803195003,0.004520817054325
1.7176985488944077e+18,0.0032161825433157896,-0.011205483840684212,0.0021166023920736847
1.7176985490944077e+18,0.002603989711545,-0.0134998745286,0.0017345737666019996
1.7176985492944077e+18,-0.011729529790350001,-0.01806281006417,-0.007907157309155002
1.7176985494944077e+18,0.007895421329579998,-0.019338668929,-0.00130241723969
1.7176985496944077e+18,0.0201311696786,-0.0140251386909,-0.003865954303155
1.7176985498944077e+18,0.021329318336399998,-0.025975664332999998,-0.002518307580335
1.7176985500944077e+18,0.00696571078135,0.00154612719753,-0.00418028701104355
1.7176985502944077e+18,-0.009251373750144998,0.018612644589,0.005922285024879999
1.7176985504944077e+18,-0.021641175682499996,0.0304133986351,0.00273674279463
1.7176985506944077e+18,-0.011297660732157894,0.010861443649894737,0.0022842937982247374
1.7176985508944077e+18,-0.018767805257149998,0.0082704610656,0.0009691031882365
1.7176985510944077e+18,0.0026353094259850005,0.00152358387125,0.00316620964987
1.7176985512944077e+18,0.0012666127877245,-0.0037137305479200003,-0.0009855306008319995
1.7176985514944077e+18,-0.005677018198184999,-0.011638859624395,-0.00514414284855
1.7176985516944077e+18,0.012956274288942502,-0.021375002060699998,-0.00017207971538250001
1.7176985518944077e+18,0.015542107960749002,-0.01410187440865,-0.00252149156295
1.7176985520944077e+18,0.01969555872525,-0.020337077463500004,0.0012594594852535
1.7176985522944077e+18,0.01736363011273684,-0.009449364360468422,-0.002510097625263158
1.7176985524944077e+18,0.0355287980295,-0.0005736529128600003,0.000130565313155
1.7176985526944077e+18,0.011329959053299999,-0.0025708505072299997,0.0007460454827299999
1.7176985528944077e+18,0.0066468865143000004,0.01697243510345,0.0053053903393
1.7176985530944077e+18,0.017236564053400003,0.0076907710402,0.013984173628900004
1.7176985532944077e+18,0.07609144393189,-0.12716791561316,-0.004116410669449999
1.7176985534944077e+18,-0.079296381261,-0.0718182262514,0.03362051975025
1.7176985536944077e+18,0.00822813592705,-0.12545606047,-0.0982857240375
1.7176985538944077e+18,0.023304849514599997,-0.008897255548060002,-0.032090095919600006
1.7176985540944077e+18,0.019362662685957897,0.005503363146221051,0.04678005242026315
1.7176985542944077e+18,-0.004398032137499999,0.183084308178,0.1547759503065
1.7176985544944077e+18,-0.046973111966755,0.0401754899935,0.0661443500805
1.7176985546944077e+18,-0.039578653942184995,-0.05650458331124999,0.0990633631532
1.7176985548944077e+18,-0.05692544458400001,-0.041963339502750004,-0.0066588047875
1.7176985550944077e+18,0.037217337753099995,0.2672914953915,-0.11539546679050001
1.7176985552944077e+18,0.02016013164475,0.0027182069599000014,-0.03707647330225
1.7176985554944077e+18,-0.00568201253226,-0.07243377096185001,0.012795853520555001
1.7176985556944077e+18,0.015847318440368418,-0.09121076859189474,-0.00756707954163158
1.7176985558944077e+18,0.21425797927280002,-0.416654117769,-0.0366914851166
1.7176985560944077e+18,-0.1479817984575,0.2904358800515,-0.13290518543665003
1.7176985562944077e+18,-0.08058015038510001,-0.06416518690595,0.0259913814484
1.7176985564944077e+18,0.1328370379116,-0.38321209383050003,0.0036553567739500007
1.7176985566944077e+18,-0.09740544787604999,0.481583137061,0.18020274518459997
1.7176985568944077e+18,-0.027096244597500003,0.12162462221599997,0.0173596839231
1.7176985570944077e+18,-0.07067169797999999,-0.0467966500675,-0.133191488126235
1.7176985572944077e+18,-0.06623603509540002,0.051460007578699986,-0.42188807320899996
1.7176985574944077e+18,0.046034764349526316,0.025169862285015786,0.011940961949415787
1.7176985576944077e+18,-0.02304691792380001,0.24562581848249998,-0.31879314779949997
1.7176985578944077e+18,0.6931055289329999,0.8427872395139999,-0.4893236501155
1.7176985580944077e+18,0.7776654049700001,0.5631144154164999,-0.05298930480499999
1.7176985582944077e+18,0.18688491530200002,-0.365492374481,0.5770380679485
1.7176985584944077e+18,0.008762739131500002,-0.44328634621720003,-0.6425985649100001
1.7176985586944077e+18,-1.0264961554449998,-0.41414296849349996,-0.23376137000299996
1.7176985588944077e+18,0.51866819101,0.16899698850409503,0.12826170659650005
1.7176985590944077e+18,0.08566980651894736,0.04776141385517895,-0.3740488408463158
1.7176985592944077e+18,-0.02877601028805,-0.01047977984405,0.03769513410655
1.7176985594944077e+18,-0.039975152792865,-0.0506500241127,0.016406703086
1.7176985596944077e+18,-0.0504607209467,-0.03915127641621499,0.06656893566250001
1.7176985598944077e+18,-0.04332803478397,-0.085781187375,0.0826331235495
1.7176985600944077e+18,-0.1307635879085,-0.13515303386900002,0.12646469380550002
1.7176985602944077e+18,-0.0268723442432,-0.17967229374199997,0.10658532294694997
1.7176985604944077e+18,-0.028211070512600002,-0.145005206399,-0.015377669968000001
1.7176985606944077e+18,-0.0619255838143158,-0.16165762336315787,0.11669239010105265
1.7176985608944077e+18,-0.0922690642955,-0.0981286399095,0.115601198938
1.7176985610944077e+18,-0.095922754145,0.125137323518,0.007827817835499996
1.7176985612944077e+18,-0.055497946916600004,-0.0311445575511,-0.0020749219729499996
1.7176985614944077e+18,-0.1023178497325,0.0463082162421,0.12187295891849999
1.7176985616944077e+18,0.001115529187699999,0.021735283965949995,0.1142339866685
1.7176985618944077e+18,0.24252176694750002,0.0038090874666500004,-0.05977918503235
1.7176985620944077e+18,0.1272617335047,0.0608514978739,-0.218648611755
1.7176985622944077e+18,0.07612137505649999,0.0746067759563,-0.259385640822
1.7176985624944077e+18,0.13008495930368422,0.022745748297894733,0.1211782117436842
1.7176985626944077e+18,0.0933924921536,-0.027126807156649994,0.07363232494706999
1.7176985628944077e+18,-0.027303661080299996,0.02376709893615,-0.031242752517405
1.7176985630944077e+18,-0.017375557626099998,-0.0045204068998999985,-0.005491412081705
1.7176985632944077e+18,0.005395846418530999,-0.007659811188625,-0.005506392475370001
1.7176985634944077e+18,0.013326178770049999,0.002022637892565,0.00286294243932495
1.7176985636944077e+18,0.01426267788087,-0.007184353004550001,0.029012936679
1.7176985638944077e+18,0.022824848094350002,0.0021224167425695,0.0014836418327500002
1.7176985640944077e+18,0.02212902663368421,-0.05386715830563158,0.018015387567157898
1.7176985642944077e+18,0.03156189210695,-0.009180035302208001,0.005427139391451
1.7176985644944077e+18,-0.003249678900105,0.00979125055015,-0.005514250893755
1.7176985646944077e+18,-0.01164292684965,0.00022574393133500031,3.511429527999995e-05
1.7176985648944077e+18,-0.017301963013549998,0.013863588077200003,-0.00275043649608
1.7176985650944077e+18,-0.016485810955350004,-0.0018730113046550006,0.00013597793875499994
1.7176985652944077e+18,-0.018158863298,0.0024105873193999996,-0.0027451114844592
1.7176985654944077e+18,-0.017131786908600004,0.00921594705385,-0.0033815401373944996
1.7176985656944077e+18,-0.021213366009999998,-0.00224918993185,-0.0021904151537950004
1.7176985658944077e+18,-0.015068817197205264,0.0005447451319526317,-0.00082746220411
1.7176985660944077e+18,-0.01952035860182,-0.0006535871187099999,-0.00273623187093
1.7176985662944077e+18,-0.014645092933549996,-0.0001384129510199999,-0.0008244245312249999
1.7176985664944077e+18,-0.0056237607382,-0.0009638142073099999,0.0011688184226575
1.7176985666944077e+18,0.020817950181249996,-3.3500301699999816e-05,-0.00031693561470700005
1.7176985668944077e+18,0.018067510869422994,0.0032708195965499994,0.0019945180043714995
1.7176985670944077e+18,0.021281567217000003,-0.00123464314983,-0.000762246665465
1.7176985672944077e+18,0.044489827567,0.009521054034695001,0.003514123824485
1.7176985674944077e+18,0.020464512273705264,0.00918496532485263,-0.0013749205360789475
1.7176985676944077e+18,0.005297364900460001,0.004922244499745,0.0002817817730693
1.7176985678944077e+18,-0.013064603076115,0.0029682291555549996,-0.0018256672890635001
1.7176985680944077e+18,-0.010078003118234998,0.007159107154525,-0.003853919601610001
1.7176985682944077e+18,-0.0163104380486,0.009758928185557002,-0.002222959871835
1.7176985684944077e+18,-0.0110439629419,0.0039605250233985,-0.000245593208895
1.7176985686944077e+18,-0.016166738281450002,0.00869204446165,-0.003290241234979999
1.7176985688944077e+18,-0.01690286733295,0.0032825419917525004,0.0008730028057000001
1.7176985690944077e+18,-0.01196673929195,0.00036660362937849996,0.000336746335915
1.7176985692944077e+18,0.007547376088842105,-0.003541735870826316,0.0004040679134910526
1.7176985694944077e+18,0.01483797265575,0.0034357147058600005,-0.004648316453285
1.7176985696944077e+18,0.01086858047695,0.004503331671010001,0.0014401605818350003
1.7176985698944077e+18,0.018220224558,0.006711230869525001,-0.0024205020745435004
1.7176985700944077e+18,0.0183281745758,0.012776054348485003,-0.000556941796005
1.7176985702944077e+18,-0.0005415740422449998,-0.0036401615244675,0.0009479272179799998
1.7176985704944077e+18,-0.009055201732834998,0.0023774612229249996,0.00032719935991500006
1.7176985706944077e+18,-0.012984389882145,-0.00173374235166,0.00068024346837
1.7176985708944077e+18,-0.016713477327578947,0.002230581459594738,0.0004706647443142106
1.7176985710944077e+18,-0.014914931345100002,0.004608562891067,0.000704698474195
1.7176985712944077e+18,-0.0131513088946,-0.0011139613926450004,-0.000996793550465
1.7176985714944077e+18,-0.0127222876066,-0.001871391932995,0.000577097607265
1.7176985716944077e+18,-0.010779259691399999,-0.009094608854365,0.000893311272345
1.7176985718944077e+18,0.0055342511388,-0.0015338805739900001,0.0003879446303000001
1.7176985720944077e+18,0.014598794281899998,-0.0221954689131,0.0012985891546604996
1.7176985722944077e+18,0.01448661452195,-0.012540401343649999,0.000749405811135
1.7176985724944077e+18,0.019150175723634998,-0.00577824644215,0.0032895351527200004
1.7176985726944077e+18,0.025314658047368422,-0.0021879955708947367,0.0003696782392105263
1.7176985728944077e+18,0.0192439795945,-0.0012515871551910002,-0.00096957944338
1.7176985730944077e+18,0.006989125034045,-0.0006433437571730001,0.000571492640295
1.7176985732944077e+18,-0.009897222625545002,0.003976725926464999,-0.0004261604276965001
1.7176985734944077e+18,-0.0079489385944,0.001187162659995,0.000367193808778
1.7176985736944077e+18,-0.009383212810535,0.004797688173105,0.0006181786767949999
1.7176985738944077e+18,-0.017160174645549996,0.0056707224816,0.0007941137534000001
1.7176985740944077e+18,-0.01322356838475,0.00552591111084,-0.0028506999603800003
1.7176985742944077e+18,-0.012215783133263157,-0.0005718646203578947,0.00036740050601052627
1.7176985744944077e+18,-0.01128764416685,-0.002949670259625,0.000511095416715
1.7176985746944077e+18,-0.0141216584475855,0.004370388923475,0.00033409739849185003
1.7176985748944077e+18,-0.012951892137899998,0.0018685724119399997,-0.00188460154445
1.7176985750944077e+18,-0.00945152293415,-0.002987933391655,0.001974177849308
1.7176985752944077e+18,0.00221093338939,-0.008258608100295,0.00010712061780000007
1.7176985754944077e+18,0.0180937929088,-0.00864037643185,0.00141423710152
1.7176985756944077e+18,0.028059376357,-0.009624899038698499,0.0026763713689005
1.7176985758944077e+18,-0.13855067720739997,-0.019050925550235,0.021526948385649995
1.7176985760944077e+18,-0.27884882060526317,0.04923769322,-0.06961777452947368
1.7176985762944077e+18,-0.0525645892843,-0.02112290661355,0.021913869260049998
1.7176985764944077e+18,0.15578422732499997,0.025515728536345,-0.051555544881999996
1.7176985766944077e+18,0.11600425177649998,0.0404222680255,-0.03199798199304
1.7176985768944077e+18,0.0559208146285,0.02530150548645,0.006822166568000001
1.7176985770944077e+18,0.006062972685900001,0.00499022910415,0.015454572019500002
1.7176985772944077e+18,-0.0034412214067000004,0.006087648822106,-0.00457940944463
1.7176985774944077e+18,-0.0013913030266000006,-0.006005822215449998,0.006746248155909002
1.7176985776944077e+18,0.01599860870242105,-0.005270837389626315,0.007463184970257893
1.7176985778944077e+18,0.01792203283454,-0.00881406744085,0.0100927348251
1.7176985780944077e+18,0.031236633006499998,0.00089347324094061,0.0008154445214700002
1.7176985782944077e+18,0.033902371767499995,0.006280161044404998,0.0032080273606700004
1.7176985784944077e+18,0.030886109266500004,-0.00570171766405,0.0016195202479149999
1.7176985786944077e+18,0.0257831930185,0.0024468799821465003,0.003446904488349999
1.7176985788944077e+18,0.001351928594325,0.0031434570440349993,-0.002434736653005
1.7176985790944077e+18,-0.0064778512451,0.005315499531439999,0.0011386580067004998
1.7176985792944077e+18,-0.010486715543450001,0.0021956439708550003,-0.00027043719309300003
1.7176985794944077e+18,-0.007252790266684209,0.0022882416378157892,0.0009726633709105263
1.7176985796944077e+18,-0.003154063757650004,0.08524871805224998,0.015002599825750002
1.7176985798944077e+18,-0.30958756357,0.042444744426449986,-0.06548486314424999
1.7176985800944077e+18,-0.17019333541999998,0.10841542561394998,-0.07403780384104999
1.7176985802944077e+18,-0.144883843729945,0.0854264570875,-0.0759031148645
1.7176985804944077e+18,0.06773035006435,0.02048027692315,-0.01607464471695
1.7176985806944077e+18,0.02902177947495,-0.0011165236144999966,-0.0253380093834
1.7176985808944077e+18,-0.03341808475165001,-0.00857838019665,0.015292187313899998
1.7176985810944077e+18,-0.061760407745789475,-0.024265001307052635,0.014740619636842103
1.7176985812944077e+18,-0.054759116472000005,-0.010334020479650001,0.009521702991655001
1.7176985814944077e+18,-0.03171065650075,-0.0049966004218100005,-0.004116425407299999
1.7176985816944077e+18,-9.830095834999949e-05,-0.007102757086650001,-0.0365802530435
1.7176985818944077e+18,0.029161927616215,0.00950407024925,-0.03086473834585
1.7176985820944077e+18,0.0011837871389000013,-0.07311843941299997,-0.02972036018105
1.7176985822944077e+18,-0.010030344710787498,0.008633833087703,0.00150535593255
1.7176985824944077e+18,-0.130115615345,0.007641675043499998,-0.0219821509552
1.7176985826944077e+18,-0.05748744560859999,-0.05998394517390001,0.01191788108475
1.7176985828944077e+18,0.1406491292957895,-0.08468378437805263,0.021407562259773683
1.7176985830944077e+18,0.12226359415250002,-0.0961707815545,0.07646192163935002
1.7176985832944077e+18,0.15667927749050004,-0.029302588899549998,-0.01767862262239
1.7176985834944077e+18,0.07073872616394998,0.011817119574750002,0.011948101223
1.7176985836944077e+18,-0.1824016677235,-0.024216819438899993,0.09216648693400001
1.7176985838944077e+18,-0.23641528366849998,-0.06400549259449999,0.16621633582
1.7176985840944077e+18,-0.05040502320175,-0.034980741608999985,0.0999951390545
1.7176985842944077e+18,-0.224150498955,0.16764036025450002,0.33578681460599996
1.7176985844944077e+18,-0.002404272851684205,-0.20850169766068424,0.09171979707736841
1.7176985846944077e+18,0.049509427837299995,0.04729522562865,-0.027849591622549998
1.7176985848944077e+18,0.20259553007999997,-0.04204077257975,0.0506789712261
1.7176985850944077e+18,0.10152333360600001,0.15469106957794998,-0.007249187773250003
1.7176985852944077e+18,0.007297458688000002,0.034099154179999994,-0.07350308728300001
1.7176985854944077e+18,0.0414988811827,0.1117006218554,-0.336793119455
1.7176985856944077e+18,-0.1741063312235,-0.13806697799899995,-0.13965424462735
1.7176985858944077e+18,0.24651675180049998,-0.045013399457500006,-0.023511427764200007
1.7176985860944077e+18,-0.3643921939855,-0.265330129153,0.47505733966
1.7176985862944077e+18,-0.015225970834210524,-0.1595269715546842,0.21205069184473682
1.7176985864944077e+18,0.1403623889115,0.04229523735199999,-0.20626554293100008
1.7176985866944077e+18,-0.41137471599,-0.22557370771254998,-0.07886692355050001
1.7176985868944077e+18,0.30524961429,-0.12198041602000002,-0.14106413269355
1.7176985870944077e+18,-0.203162843544,-0.025902025380000006,0.198567916642
1.7176985872944077e+18,0.30496800951499997,-0.008642657449949995,0.10787142161549998
1.7176985874944077e+18,-0.232488934788,0.12254305466304997,-0.053065186321149996
1.7176985876944077e+18,-0.32464349270000004,-0.047092491117449994,0.0011555628867000027
1.7176985878944077e+18,0.38323598907689466,-0.8589195414257894,-0.14191733141540527
1.7176985880944077e+18,-0.052377580751000005,-0.08568620422944999,0.07175630028784999
1.7176985882944077e+18,0.174841696586,-0.134281862059,0.17528897863805
1.7176985884944077e+18,-0.4030250500835001,0.38324060328600007,0.05333040329904999
1.7176985886944077e+18,-0.15818226386400006,0.833449153215,0.11628509270454998
1.7176985888944077e+18,0.3657959401955,-0.6738912315854999,-0.24796978011600004
1.7176985890944077e+18,-0.12976735485200003,0.04904402723755002,-0.052217474486999996
1.7176985892944077e+18,0.13458841343159997,-0.06402521365849999,0.2273546628639999
1.7176985894944077e+18,-0.20594831147284212,0.11266122022736842,0.06534964100947369
1.7176985896944077e+18,0.014260018994999995,0.25998864530395,0.04666320145705001
1.7176985898944077e+18,0.14994593821049998,-0.6102143976615,-0.006768744767975005
1.7176985900944077e+18,-0.021104846433749998,-0.018492460637,-0.0078561395935
1.7176985902944077e+18,0.281936501103995,0.02128081641149999,-0.2765714897125
1.7176985904944077e+18,0.15583847351450003,0.2814966346955,0.079402140522
1.7176985906944077e+18,-0.1950664857423,-0.051547786502,-0.21262365155995006
1.7176985908944077e+18,-0.09874820536699999,0.10612333658824999,0.26248573450340007
1.7176985910944077e+18,-0.07422422321934999,0.0262085096625,0.19938248508649997
1.7176985912944077e+18,0.002581444691421052,0.07158539055736841,0.08206319359005261
1.7176985914944077e+18,-0.026542237240875,0.06968778892855,0.009013527814000003
1.7176985916944077e+18,0.0837810054415,0.049693846706,0.025002744352199995
1.7176985918944077e+18,0.058150260238999996,0.074030325841,-0.10074754469200001
1.7176985920944077e+18,-0.04923404126905,0.036798478500300005,-0.08665787582815002
1.7176985922944077e+18,0.0359191480091,0.03150026192949999,0.028075902908125006
1.7176985924944077e+18,0.0854369161655,0.012384714814550004,0.007169937621649999
1.7176985926944077e+18,0.037595902965815,-0.012696503382499997,0.029355968721
1.7176985928944077e+18,0.0008487050723105268,0.026207728287231582,0.026466243262631577
1.7176985930944077e+18,0.06462381724249999,0.02721241072215,0.008270747469975
1.7176985932944077e+18,0.069405492581,-0.0104060131244175,0.00016294252208499984
1.7176985934944077e+18,0.027155420066949994,0.001399766700125,0.011092385976635002
1.7176985936944077e+18,-0.0061682557685449994,0.0047179498948,0.0050598450936055
1.7176985938944077e+18,-0.01866731862525,-0.00316034143361,0.005508731747770001
1.7176985940944077e+18,-0.021668325784200002,0.002647281904295001,0.005592950782935
1.7176985942944077e+18,-0.00895986227555,-0.006932265474349999,0.00271536235214
1.7176985944944077e+18,-0.006736896863175001,-0.0021340342940450005,0.011353872913675
1.7176985946944077e+18,-0.025983964140947363,0.002656468386631579,0.004512314267936843
1.7176985948944077e+18,-0.0204070766445,-0.0024216888823750003,0.00410701276283
1.7176985950944077e+18,-0.008673680306499999,0.0009546620077800002,0.008423581067950001
1.7176985952944077e+18,-0.00215918289024535,-0.0003433814274930001,0.010128857847400002
1.7176985954944077e+18,-0.019846433727249996,0.005040368903764999,0.0029579391470445
1.7176985956944077e+18,-0.0024564406600949998,0.0014523875429000002,0.002119949227305
1.7176985958944077e+18,-0.01357267599127,-0.01156250457334,-0.00010248834725999994
1.7176985960944077e+18,-0.003675502969385,-0.030957212207000005,0.000498570303865
1.7176985962944077e+18,0.01752339202957895,0.0033083825594705262,-0.0010731120864526315
1.7176985964944077e+18,0.0184395414781,-0.014417439955300001,-0.0005485167028250003
1.7176985966944077e+18,0.0191309212932,0.0040935389458165,-0.0025656730519
1.7176985968944077e+18,0.01648925796455,0.002647697204149999,-0.0006713173701326
1.7176985970944077e+18,-0.007538400042900001,0.0063840026382499995,0.002073571796035
1.7176985972944077e+18,-0.0133545189274,0.015830622008200002,0.0021573634237285
1.7176985974944077e+18,-0.0114852237976,0.007397564314265,0.0018759651807849997
1.7176985976944077e+18,-0.01576975504795,-0.0019691596970175004,0.002282431977826
1.7176985978944077e+18,-0.008479034923395001,0.006611940578850001,0.0052978826222
1.7176985980944077e+18,-0.01159513118013158,0.0033368337159473682,-0.002874485486631579
1.7176985982944077e+18,-0.0178906396962,0.0033782392273,0.003060924308379
1.7176985984944077e+18,-0.0009223513995499993,-0.004083677683565001,-0.001886707811952
1.7176985986944077e+18,0.01201700873135,-0.01324720843745,-0.00253185936015
1.7176985988944077e+18,0.0297492696895,-0.0184394867388,-0.00211293565809
1.7176985990944077e+18,0.022094580531000003,-0.003440148371515,-0.0041857894393250005
1.7176985992944077e+18,0.0243819430946,0.008059880347025001,0.0005687215366550001
1.7176985994944077e+18,0.022934058449000004,0.002669455204309,-0.0043439882691
1.7176985996944077e+18,-0.008006846507368423,0.0064756616111789475,0.0031548589958421054
1.7176985998944077e+18,-0.010053833375779999,0.01068735020194,0.000469557568465
1.7176986000944077e+18,0.005858922598890001,0.00602300222865,0.003910783189330001
1.7176986002944077e+18,-0.011316154012245,0.006418633775804999,0.0010861714603449999
1.7176986004944077e+18,-0.01954467650385,0.00028826948269500025,0.0032033384778800003
1.7176986006944077e+18,-0.005535680288495001,0.00828297364102,0.0018088498385815002
1.7176986008944077e+18,-0.00273437011054,0.008703884191004999,0.00027758681687899996
1.7176986010944077e+18,-0.010268131806149999,0.003985144313715,0.0021241167327449998
1.7176986012944077e+18,-0.005629738768988,0.00395211034922,0.001362685789365
1.7176986014944077e+18,-0.020728106230315787,0.009344475098526315,0.0028176593691842107
1.7176986016944077e+18,0.000578546570704,-0.012532427732480002,0.00011833354363000007
1.7176986018944077e+18,0.010186505759250002,-0.017808370687449997,-0.002624884329285
1.7176986020944077e+18,0.00421312912382,-0.013780650263650001,-0.0017519122688500002
1.7176986022944077e+18,0.0036693929342459996,0.0010835481574249998,-0.0012848753597549999
1.7176986024944077e+18,0.01296762924115,-0.0047914702212285,-0.00254323038981
1.7176986026944077e+18,0.017819775850050002,0.0082306295409,-0.00013375516283000002
1.7176986028944077e+18,0.014015452819750002,0.0014477606980750003,0.0022996640065949996
1.7176986030944077e+18,0.014489689155578946,0.002467245071810526,-0.0005968457063484211
1.7176986032944077e+18,0.022467917856950004,0.00213177502141,0.0007044661558044999
1.7176986034944077e+18,0.017916251625300004,0.0035280133250100002,-0.0010958728613749999
1.7176986036944077e+18,-0.0051026280848299995,0.0005849662821449999,0.00185365071527
1.7176986038944077e+18,-0.017868601390200002,0.0031105294829999997,0.00037719134710000003
1.7176986040944077e+18,-0.009535232791734998,0.01180617208606,0.00191134149213
1.7176986042944077e+18,-0.008705636195749999,-0.0006701348939499999,-0.00129384722105
1.7176986044944077e+18,-0.019585880125500003,0.0023908063997200002,0.00242446085907
1.7176986046944077e+18,-0.015255293063149999,0.00053614020576,-0.0005828337743249999
1.7176986048944077e+18,-0.0052545264998578945,0.004552133944973684,0.002019633048947368
1.7176986050944077e+18,-0.038790799770500005,-0.127305484823155,0.011631515249
1.7176986052944077e+18,-0.06104102931061001,0.0281696118395,0.005894468328849998
1.7176986054944077e+18,-0.10267988515395002,0.05880725045576,0.036108353175999995
1.7176986056944077e+18,0.039699660986125,0.051049746106499996,-0.00824478366535
1.7176986058944077e+18,-0.002855039901297998,-0.0037297659552499992,-0.06906532468099999
1.7176986060944077e+18,0.003903442854244999,0.003480547644055001,-0.0069461519011499995
1.7176986062944077e+18,0.00914303256485,0.004838786530120001,-0.008463276294500001
1.7176986064944077e+18,0.013506816099473684,0.02919305704210527,-0.05474703999210526
1.7176986066944077e+18,-0.012837147247065,0.0125438853051,-0.09737658759800003
1.7176986068944077e+18,0.03595978887729,0.04732271514675,-0.04981981031549999
1.7176986070944077e+18,-0.02495745194595,0.00943139966285,-0.00883418622995
1.7176986072944077e+18,0.016337086236850002,-0.0013159433841499991,0.008249273803674998
1.7176986074944077e+18,-0.00102293815002,0.00543144673455,0.0021629244321175003
1.7176986076944077e+18,-0.019496973791214997,-0.0047949600734800025,-0.01057632898393
1.7176986078944077e+18,-0.03094257132235,-0.0149875469279,0.02407210310795
1.7176986080944077e+18,-0.15203470180242104,-0.07692223684147366,0.02331953554552632
1.7176986082944077e+18,0.0040092737878499995,0.013689076435549999,-0.012075665174449999
1.7176986084944077e+18,0.047611919138,0.0125521680922,-0.030331786443500007
1.7176986086944077e+18,0.018514427262399998,0.039674842521825,-0.03814870163425
1.7176986088944077e+18,-0.0023580176399950006,0.027913450241599996,0.015321829681985
1.7176986090944077e+18,0.01796222897315,-0.0019052856125800007,0.006372768827645
1.7176986092944077e+18,0.013693517539766501,-0.004443334904700001,0.007336588122394999
1.7176986094944077e+18,-0.0136038790228,0.011214917408965,-0.0081153759729505
1.7176986096944077e+18,0.01114794353545,-0.011141581705550001,-0.010347617743998502
1.7176986098944077e+18,-0.012341728335736843,-0.0012094131057526312,0.00644189219835263
1.7176986100944077e+18,3.530972149000024e-05,0.0042253187621785,-0.0024578599370500003
1.7176986102944077e+18,-0.0014247695801300002,-0.00044298442048000037,0.00560162363117
1.7176986104944077e+18,-0.010054728039600003,-0.0018237707668749999,-0.0008350637976900001
1.7176986106944077e+18,-0.0020491596310250005,-0.028588454956549998,-0.0019441677490399998
1.7176986108944077e+18,-0.02574098873825,0.0102979716735,0.00030751707953999996
1.7176986110944077e+18,-0.00512049180735,0.00436389429925,0.0005652084597750001
1.7176986112944077e+18,0.0020449301464049996,-0.01322130197635,0.0018776219337315002
1.7176986114944077e+18,-0.0045898636852999995,0.010539280349636842,0.000443415753005263
1.7176986116944077e+18,-0.0077139757802000015,0.008160742662585,-0.0010899818967805002
1.7176986118944077e+18,0.007463365373904999,-0.013524802098946001,-0.0007570489193485
1.7176986120944077e+18,0.006999411573215,-0.012285593408200002,-0.002266997029106
1.7176986122944077e+18,0.0084849977162,0.00261284952329,0.00478815990458
1.7176986124944077e+18,0.01822442617115,0.006494845542749999,-0.007477581663949999
1.7176986126944077e+18,0.0138248084815,0.0036769554719900004,0.0020221209618649996
1.7176986128944077e+18,0.023139479755999996,0.01150564346503,-0.0053787007452025
1.7176986130944077e+18,0.018852339569063254,0.018034506775553,-0.002271679113545
1.7176986132944077e+18,0.02026272194973684,0.02309685190643158,-0.0015547746595805266
1.7176986134944077e+18,0.020231900038300003,0.01002440191875,0.0006579080595849999
1.7176986136944077e+18,-0.007355137029441,0.01336789862185,-0.0050529627362749996
1.7176986138944077e+18,-0.0025999709260309998,0.0009089450814350006,0.005113559099855
1.7176986140944077e+18,-0.0300306311808,-0.0023436327354849997,-0.003994985948894999
1.7176986142944077e+18,-0.016119857226,-0.014672936010250002,0.0026559287681900004
1.7176986144944077e+18,-0.0199792400228,-0.0012318771800100003,-0.0036975082003899997
1.7176986146944077e+18,-0.0124369719768,-0.009883070364615002,0.0037655573341499994
1.7176986148944077e+18,-0.01039087985526316,-0.008614732026568423,0.006485968951147367
1.7176986150944077e+18,-0.0100428274364,-0.006730842380085001,-0.0024356458918000003
1.7176986152944077e+18,-0.0047682043976749995,-0.003959892189575,0.0044385544723649995
1.7176986154944077e+18,-0.00594285286474,-0.0060388112201,-0.000786930043255
1.7176986156944077e+18,-7.440478037599989e-05,-0.009443628858315001,0.0001429067109125001
1.7176986158944077e+18,-0.00413320463895,-0.010459834220705,-0.001537904446
1.7176986160944077e+18,0.008502141688865001,-0.01368989327479,0.0023391653085649998
1.7176986162944077e+18,0.013452519266949996,0.00630079298375,-0.00580593392991505
1.7176986164944077e+18,0.029372386913999998,0.01172509808125,0.002685537887745
1.7176986166944077e+18,0.01606027027036842,-0.0014800854812526312,-0.005428456248047368
1.7176986168944077e+18,0.0118184728663,0.012551947566598252,-0.0016742099194700002
1.7176986170944077e+18,0.0045578169868,0.01949105138165,-0.0037778447730749997
1.7176986172944077e+18,0.009737255028408,-0.0005000977895099999,0.00156736411166
1.7176986174944077e+18,-0.004246982769386,-0.0022014748308299996,0.000159637467105
1.7176986176944077e+18,-0.013360656867400003,-0.0056781466119999995,0.0012240398908485
1.7176986178944077e+18,-0.010829675384359999,0.003675334446315,0.0021790653699549994
1.7176986180944077e+18,-0.016279443446550003,-0.00098150030205,0.0010789960621600003
1.7176986182944077e+18,-0.014056847307789474,-0.0005248854997894729,0.003015748078126316
1.7176986184944077e+18,-0.017297218693,-0.00995896138495,0.002229348942565
1.7176986186944077e+18,-0.00724240012905,0.00028474680060000025,0.00311513154308
1.7176986188944077e+18,-0.0055797607286074994,-0.00493562621988,0.0017404151381999998
1.7176986190944077e+18,-0.00650669687933,-0.007968612574650001,0.0025275943102550003
1.7176986192944077e+18,-0.0024116061274849997,-0.00696447794375,0.00180408512238
1.7176986194944077e+18,0.009458113275705001,-0.0112192535076,-0.003920567850489999
1.7176986196944077e+18,0.006839404302270001,-0.0204400737305,0.0011943890945394998
1.7176986198944077e+18,0.009101839689145502,-0.009490403312237002,0.0038949595064765004
1.7176986200944077e+18,0.012865662916794737,0.004712204400157894,-0.0061521998020894735
1.7176986202944077e+18,0.027527894825099996,0.008174146455205998,0.007933764624999999
1.7176986204944077e+18,0.018043388007279997,0.008892055740200001,0.0017723907249000003
1.7176986206944077e+18,0.018757202150000003,0.011133383121519,-0.004666484193675
1.7176986208944077e+18,0.015100841363750001,0.0092287049858,0.00098984558112
1.7176986210944077e+18,0.0059712614981199995,0.015945693606145,0.006973183644426001
1.7176986212944077e+18,-0.00015862826262999977,-0.0036411499723200008,-0.007379533211064998
1.7176986214944077e+18,-0.01295144860685,-0.0025392856914949998,0.004121635272118
1.7176986216944077e+18,-0.010443384538057895,0.008217207548526317,-0.0008532847645842107
1.7176986218944077e+18,-0.006073590961314999,-0.003402445954325,-0.00045625166963999994
1.7176986220944077e+18,-0.009150210371249998,-0.0008380291514614996,-0.0007256041280599999
1.7176986222944077e+18,-0.014527793531400001,-0.00173352920692,0.0017554484541040002
1.7176986224944077e+18,-0.00934627685936,-0.003568239905850001,-5.6913693060499916e-05
1.7176986226944077e+18,-0.006133159901815,-0.001487203873455,0.0007034546579140001
1.7176986228944077e+18,-0.007220487727605,-0.002947281568955,0.0012274953536675
1.7176986230944077e+18,-0.009524810245150001,-0.003326491802415,0.001962136500565
1.7176986232944077e+18,-0.008705492993299998,0.0010088597425,0.000143060064905
1.7176986234944077e+18,0.004349198732057895,0.0015586793023578945,0.0028879064331578945
1.7176986236944077e+18,-0.0051660073108500005,-0.001045984309,0.002396059711442
1.7176986238944077e+18,-0.008881304308849999,-0.0069086544446050014,-5.6843657515499944e-05
1.7176986240944077e+18,-0.00269586289071,-0.0042275248442205,0.000774270319325
1.7176986242944077e+18,0.005508772749575,-0.019099025765589497,-0.0019468444981649998
1.7176986244944077e+18,0.018070659926499998,0.005798399797736499,-0.0029902043635650004
1.7176986246944077e+18,0.01087314488745,-0.004689142410955,-0.0013258607475395
1.7176986248944077e+18,0.01322234501025,0.0024437083163200007,-3.0302221420000084e-05
1.7176986250944077e+18,0.01181199340368421,0.0007768410115473684,-0.0007573318986400001
1.7176986252944077e+18,0.01628469581455,0.01669647167355,3.050174561199988e-05
1.7176986254944077e+18,-0.0068300517739965,-0.0004755191269550001,0.00028678945963000004
1.7176986256944077e+18,-0.012558735277850003,0.0033523757710200003,0.001703360700089
1.7176986258944077e+18,-0.013247534132274997,0.0036159964044649995,0.0009023132733339999
1.7176986260944077e+18,-0.013719128119599999,0.0017588497366799998,8.127645120000005e-05
1.7176986262944077e+18,-0.010955517145515,-0.00584804970958,0.0008991286158644999
1.7176986264944077e+18,-0.0171112879645,0.004475504590774999,0.00137613728873
1.7176986266944077e+18,-0.004993424750842105,9.063253855789414e-05,0.0021629923905157893
1.7176986268944077e+18,-0.00813940551575,-0.0009041489559799999,0.0013575745048000003
1.7176986270944077e+18,-0.006744799448599998,-0.005826238647529999,0.001088524027665
1.7176986272944077e+18,0.0029714507635000002,-0.016628243576750003,-0.0007733425009350001
1.7176986274944077e+18,0.0165691775742,-0.00425450461879,-0.0023814244195405
1.7176986276944077e+18,-0.008551493810300001,-0.015021486277799997,0.004371203738239999
1.7176986278944077e+18,0.02235489408435,0.0029411967487749996,-0.007155475951900002
1.7176986280944077e+18,0.0009889190310249996,0.0180558440278,0.003033652598835
1.7176986282944077e+18,0.017229934408999996,0.0020808448781250003,-0.0017938608303980003
1.7176986284944077e+18,0.0029605969196732627,0.012742759587205263,-0.0033022213213842106
1.7176986286944077e+18,0.016584720020499998,0.006757591943700002,0.00179254780519
1.7176986288944077e+18,0.031113454141499998,0.01305440077565,-9.320287506099984e-05
1.7176986290944077e+18,0.026674873941000005,-0.00422569821835,-0.00036188052036800007
1.7176986292944077e+18,-0.003090382006485,0.0020950236241295,0.0003787509398299999
1.7176986294944077e+18,-0.009555960306668701,0.005228635191815001,0.0023176927119199996
1.7176986296944077e+18,-0.007190699456349999,-0.00530943870545,-0.00037450318923999996
1.7176986298944077e+18,-0.009257823658899999,-0.0012128873026399996,0.0014336323948519998
1.7176986300944077e+18,-0.008786273507526315,0.0005481599978789473,0.0007745107439578947
1.7176986302944077e+18,-0.011448462541300001,-0.0017770812376500008,0.0016058131819600002
1.7176986304944077e+18,-0.012294850009230002,-0.0005233352888199998,0.00234390655535
1.7176986306944077e+18,-0.009961759018765,-0.00937577529215,0.0008466814877815
1.7176986308944077e+18,-0.009376527380799998,-0.0084012878478,-0.00012951571262199995
1.7176986310944077e+18,-0.009958908288200001,-0.005802218790515,0.000674717919855
1.7176986312944077e+18,-0.008312056830099999,-0.0017324911077450003,7.787512152499992e-05
1.7176986314944077e+18,-0.0015107981397450001,0.002100655995550001,0.0005201777909375
1.7176986316944077e+18,-0.0033450956692850004,-0.005484063212975,0.001197058660905
1.7176986318944077e+18,-0.002524044401710526,-0.0043031723899,0.000309931665668421
1.7176986320944077e+18,0.0049458770196265,-0.0013040114892900003,-0.003097153198855
1.7176986322944077e+18,-0.002634271106365,-0.0070848423049499985,-0.0003892914624750001
1.7176986324944077e+18,0.008169038011549997,-0.013500762241170004,-0.0014658037805465002
1.7176986326944077e+18,0.013506922241549998,-0.01579079595375,-0.000870888563855
1.7176986328944077e+18,0.015363881224,0.0019501709144019996,0.0015550442040585
1.7176986330944077e+18,0.016931325267000003,0.00039653866503050006,0.000175155885465
1.7176986332944077e+18,0.02320021614395,0.012923459825775002,-0.00041005625395500005
1.7176986334944077e+18,0.01654957391736842,-0.0027857687517000005,-0.0024607514129105263
1.7176986336944077e+18,-0.006459030451035,0.00901418414415,0.001360299903825
1.7176986338944077e+18,-0.0093365743057,0.005061399249999999,-0.000258349080095
1.7176986340944077e+18,-0.00831319692155,0.0030605074486450006,0.0016846856101900003
1.7176986342944077e+18,-0.015532210574106,-0.0030029322721700008,0.0006028590723899999
1.7176986344944077e+18,-0.01633965722385,-0.00604873033085,0.0008594536222499999
1.7176986346944077e+18,-0.012757277616470001,0.0186964801266,0.0023416885407050005
1.7176986348944077e+18,-0.009533976950149998,-0.00252483874731,0.00116225585803
1.7176986350944077e+18,-0.0112019897197,0.0029016316168850005,0.0009744291193100003
1.7176986352944077e+18,-0.004266606594157896,-0.0013492045621263157,-0.0020161306874736844
1.7176986354944077e+18,-0.005079734710114999,-0.010263682541,0.0013425258920299998
1.7176986356944077e+18,0.007811701018624999,-0.018779232958100002,-0.0009168262128299999
1.7176986358944077e+18,0.013224933879,-0.00694866592465,-0.0036249546567249996
1.7176986360944077e+18,0.025205841754999996,0.0026721378327000003,6.341407995499994e-05
1.7176986362944077e+18,0.021479800343000004,0.004275120352739999,-0.0014530865010075002
1.7176986364944077e+18,0.0096742927565,-0.0003519487334699995,-0.0010768059758005
1.7176986366944077e+18,0.0209826917855,0.006270767714133499,0.0008592301512649999
1.7176986368944077e+18,0.016507848558631577,0.013813081577421055,-0.0013390013114736841
1.7176986370944077e+18,-0.0057952057571,-0.0019725642052700002,3.610469864999909e-06
1.7176986372944077e+18,-0.007874673255449998,-0.0019416135508000007,-0.000167892221296
1.7176986374944077e+18,-0.007805821718625002,0.0050745668001,0.00103388535798
1.7176986376944077e+18,-0.009117550123938998,-0.0010295890968849998,-0.0006662848173350001
1.7176986378944077e+18,-0.009715614979749999,-0.0013854325983450005,0.0014392894226999998
1.7176986380944077e+18,-0.01098343888305,-0.001659984630536,0.0008077784907250002
1.7176986382944077e+18,-0.0088613670081,-0.0002197061898499998,0.0018861486343195
1.7176986384944077e+18,-0.009417411568500001,-0.0012829788959749999,0.00042932869406149993
1.7176986386944077e+18,-0.004772246876410527,0.012086140481452633,0.0019121150927426313
1.7176986388944077e+18,-0.00572120577505,-0.0034766747264940003,0.0006353872595664999
1.7176986390944077e+18,-0.003259428625485,0.0015949874418145,0.00149780998475
1.7176986392944077e+18,-0.003296141000405,0.00235618450683,0.0011074004461359998
1.7176986394944077e+18,-0.012578736152549999,-0.006200761418499999,0.00184270339086
1.7176986396944077e+18,0.0019841801375300003,-0.021551149616749997,-0.0007863458129199998
1.7176986398944077e+18,0.01128464534327,-0.012136309989950002,-0.003776708280165001
1.7176986400944077e+18,0.01337695266135,-0.0015000355433699996,0.00031016928832800004
1.7176986402944077e+18,0.012215443200894738,-0.0014467013903157896,-0.0022546369582710523
1.7176986404944077e+18,0.0193490929892,0.0035533760670350004,-0.0022287676111804994
1.7176986406944077e+18,0.010796184442549999,-0.006566803029645,0.004417050443419999
1.7176986408944077e+18,-0.011606164404405,-0.07195583330024999,0.0094491003662
1.7176986410944077e+18,-0.0099224766695,-0.0097732997894,0.04931223669945
1.7176986412944077e+18,-0.083344674298,-0.188453668169,0.11321390494849999
1.7176986414944077e+18,0.03229660834095,-0.21973782702500003,0.13675818536849998
1.7176986416944077e+18,0.0548454731645,-0.143159241229,-0.026041922437500004
1.7176986418944077e+18,-0.16853175453726318,-0.08344867560631579,-0.36189550004736837
1.7176986420944077e+18,0.01216169307025,0.0786090300184,0.006866203736790003
1.7176986422944077e+18,0.044355252188009994,0.10523615870249999,0.05357100805349999
1.7176986424944077e+18,0.02729593182429,-0.017669883718670003,0.029040947158824992
1.7176986426944077e+18,-0.00035560491918649946,-0.03472436964465,-0.08416651096149999
1.7176986428944077e+18,0.014872611453985,-0.000636869555849999,-0.031758164987
1.7176986430944077e+18,-0.026243948610099998,0.03591821186185,0.0009578944654500016
1.7176986432944077e+18,0.02555782503874,-0.09738114243850002,0.04075620577507501
1.7176986434944077e+18,0.025318164635450002,0.10347443353350001,-0.019895393703449997
1.7176986436944077e+18,0.11818853314210526,0.12531138006157894,0.0727159386831579
1.7176986438944077e+18,0.00740228528171,-0.035995093639800003,0.035618848447500004
1.7176986440944077e+18,0.00603079960057085,-0.0225016975541,0.019499609013645
1.7176986442944077e+18,0.026363500650099996,0.06083866031306499,0.03793123815840001
1.7176986444944077e+18,0.0020828691542575,0.059865975075049996,-0.033160932525590006
1.7176986446944077e+18,-0.0057196394771684995,-0.025142564717555004,0.0496245578624
1.7176986448944077e+18,-0.033291549562000006,-0.035997262454499995,0.03933014371475
1.7176986450944077e+18,0.01825475575175,0.003805649187300002,-0.024110564588899996
1.7176986452944077e+18,-0.0031671310810526317,0.019194578090210527,0.0310030601131579
1.7176986454944077e+18,-0.006761512067269999,-0.016543304700570003,0.02405018145235
1.7176986456944077e+18,0.04572780388530001,-0.035489447976,-0.019721851173150003
1.7176986458944077e+18,0.029653172718599997,0.039328765843685005,0.01623534584712
1.7176986460944077e+18,0.080289324376,-0.045974728466300005,0.066927618529
1.7176986462944077e+18,0.049505452462550004,-0.025264284585550002,0.002919059687650001
1.7176986464944077e+18,-0.0027333097410350005,0.029499786323849995,0.003134426078607
1.7176986466944077e+18,0.003033771691975,0.004202411812300001,0.011211067134999999
1.7176986468944077e+18,-0.0084367368605,-0.002374212862995,0.01568588227955
1.7176986470944077e+18,-0.009100655534842106,0.008330738074736842,0.002335207414263158
1.7176986472944077e+18,0.0072457777215999995,0.006500305723980001,0.009926665155350001
1.7176986474944077e+18,-0.015407083893750001,0.0168418574493,0.007668470614595002
1.7176986476944077e+18,-0.029214576165499995,0.0180191398484,-0.003035465301740001
1.7176986478944077e+18,-0.01586810487725,0.00498804973885,0.0019163801101895
1.7176986480944077e+18,0.019029028760459997,-0.01547138621168,-0.00975149292555
1.7176986482944077e+18,-0.01237048164455,-0.033466434572749997,-0.012354398448449998
1.7176986484944077e+18,0.02032107915765,-0.006453032720400001,0.005512449750579999
1.7176986486944077e+18,0.02879545171,-0.028384038344894735,3.524011878947367e-05
1.7176986488944077e+18,0.005682634236500001,-0.009517236752149999,-0.0015490669177999998
1.7176986490944077e+18,0.035943775530550004,-0.014431874617079999,0.00201482605173
1.7176986492944077e+18,0.028999262442499996,0.007294229755915499,-0.006145692477155
1.7176986494944077e+18,0.00710672038845,0.003236531477935,0.001600662502525
1.7176986496944077e+18,0.0020751481636699996,-0.0017045254236149998,-0.0014905908145049997
1.7176986498944077e+18,0.003692512190915001,0.0060387013017135,1.4421809764999811e-05
1.7176986500944077e+18,-0.006303525366605001,0.008822559705735002,-0.0043265128038
1.7176986502944077e+18,-0.025375187024,0.023098912578824998,0.0020974992312899994
1.7176986504944077e+18,-0.003934628880684211,0.0011256085223157895,-0.006153601025696844
1.7176986506944077e+18,0.0034005441707,0.009008947003299999,0.013692816288549996
1.7176986508944077e+18,-0.002533757977899998,-0.009976171993379999,-0.01274696500085
1.7176986510944077e+18,0.017386724823,-0.038386264818050006,-0.011623443500725
1.7176986512944077e+18,0.003714077616949999,-0.024388552596499996,-0.027490786229000003
1.7176986514944077e+18,-0.0523495310915,-0.0259504930615,-0.006459707203499998
1.7176986516944077e+18,-0.675915238265,-0.017402956911000005,0.186537836299
1.7176986518944077e+18,-0.28689275216599996,0.18166439784600003,-0.06455378432030999
1.7176986520944077e+18,-0.015421426007368417,0.0794712249429421,0.013484961940694732
1.7176986522944077e+18,0.5426025237865001,-0.34558496185500004,-0.1809297287845
1.7176986524944077e+18,0.15884253345600002,-0.03500706551466125,0.008693936003500002
1.7176986526944077e+18,-0.31252494091629995,0.349638206516,0.09587624105685
1.7176986528944077e+18,-0.31659546999365007,-0.277125493727,0.12126189601250001
1.7176986530944077e+18,0.9369480740514999,0.32445709594,-0.17545757922485
1.7176986532944077e+18,0.21883404868599995,-0.2662890282459999,-0.04045846653315
1.7176986534944077e+18,-0.37515337961434997,0.08036432261439999,0.144606004431
1.7176986536944077e+18,-0.6333350565642106,0.1534886527586842,0.27460884342105263
1.7176986538944077e+18,0.7613718162975001,0.0731571869455,0.1572355724702
1.7176986540944077e+18,0.16826907117492498,-0.17371718153785004,-0.15977754192880003
1.7176986542944077e+18,-0.40734716169050006,0.37448323816199997,0.011925438359500001
1.7176986544944077e+18,-0.9115690082150001,-0.117937658965,0.0342913206884
1.7176986546944077e+18,0.835442361322,-0.05183366096599999,0.06754903981925
1.7176986548944077e+18,0.205759438875,-0.35542872769199996,-0.037037707866499986
1.7176986550944077e+18,-0.09654408116145,0.253630047675,-0.015367886332800002
1.7176986552944077e+18,-0.4504324246215,0.4209091264720001,-0.07579099180245
1.7176986554944077e+18,-0.9005008190368421,-0.09574467933536841,0.18439413980315789
1.7176986556944077e+18,0.8563386475460002,-0.18373012059000002,0.011386883528950004
1.7176986558944077e+18,0.178887422105,-0.058890449724999995,0.00019121206825000736
1.7176986560944077e+18,0.4194270886799999,-0.09380044713350001,-0.0686264612319
1.7176986562944077e+18,-0.139862885516,0.05379930604250001,0.06353913082365001
1.7176986564944077e+18,-0.08898335499585,-0.10550035291386,0.08414978384824999
1.7176986566944077e+18,-0.044605901468500006,-0.07416085314585001,-0.0543249827338
1.7176986568944077e+18,0.03877669628995,0.125177244929,0.0901006491735
1.7176986570944077e+18,-0.05725477027931579,0.04879126178484211,-0.03388802756210526
1.7176986572944077e+18,0.0015991188810999999,-0.10767765501889999,0.0012937104330899998
1.7176986574944077e+18,0.0321153965325,0.09686234835900001,-0.059201845553275
1.7176986576944077e+18,-0.2103590868445,0.061667644533,-0.43628891259499997
1.7176986578944077e+18,-0.053894955967,-0.10000080912649997,-0.187865270107
1.7176986580944077e+18,-0.05262738470804999,-0.08044696673549999,0.0430649749956
1.7176986582944077e+18,-0.17975873574899998,0.6713680938050001,0.1800244209255
1.7176986584944077e+18,0.08852086849389999,0.025127898587750015,-0.037348551111900004
1.7176986586944077e+18,-0.4062395715516501,1.7010231808100003,-0.4044380512616851
1.7176986588944077e+18,0.4159571096231579,1.128004544781579,-1.3809865336315792
1.7176986590944077e+18,-0.25474750551500003,-1.29110153687,-3.8206828952
1.7176986592944077e+18,-0.826460439424,-0.08021396492649994,-4.145205801664999
1.7176986594944077e+18,1.258364429295,1.3255039625165002,-2.1853345539685
1.7176986596944077e+18,-1.174884742455,1.447193043022,-4.12725588975
1.7176986598944077e+18,-0.012878653918670005,-0.06123320095731501,-0.0010281626836700002
1.7176986600944077e+18,4.7395064015999996e-05,0.00016716724497999998,-0.00029072442559
1.7176986602944077e+18,0.00040134191507,-0.00033909576013899995,0.00042112583765000004
1.7176986604944077e+18,-6.95962531736842e-05,-0.0001395407108294737,-8.289118929000003e-05
1.7176986606944077e+18,0.00026599888215625005,0.0006093694245625001,-0.00046342838316250004
1.7176986608944077e+18,,,
