Timestamps,Gyro_X,Gyro_Y,Gyro_Z,Label,Delta Time
1.717674973569219e+18,0.2344406700633721,-0.9454268925674418,0.1312933090544651,1,14200000000
1.717674973769219e+18,0.2885803358768605,-0.44974564345,-0.1513097848462791,1,14200000000
1.717674973969219e+18,-0.2179402160386639,-1.3838573340755815,-0.6409676274116278,1,14200000000
1.717674974169219e+18,-1.3570882068058825,-0.3783876094923177,0.4361287015821294,1,14200000000
1.717674974369219e+18,0.2581365374863256,0.2630341118659268,1.5177574716087203,1,14200000000
1.717674974569219e+18,1.0578153607779068,-0.8436681895209303,-0.5354300827500001,1,14200000000
1.717674974769219e+18,-1.70582213514692,0.1537887599013953,-0.085961458884186,1,14200000000
1.717674974969219e+18,1.5768737733701177,-0.306578660847694,-1.6047777150634113,1,14200000000
1.717674975169219e+18,1.8266810262604647,-0.8963872394925585,2.1980051176627917,1,14200000000
1.717674975369219e+18,-0.0686903258458139,2.222347371755814,1.7876318534455586,1,14200000000
1.717674975569219e+18,1.8948137622034888,0.515037144062093,-1.0409135865232555,1,14200000000
1.717674975769219e+18,2.760025406583529,0.1759757718647058,-0.245912601762353,1,14200000000
1.717674975969219e+18,0.2596423904699884,0.5324965118279419,0.5641975529443023,1,14200000000
1.717674976169219e+18,1.5342472649581396,1.0721600301296512,0.4098192356239767,1,14200000000
1.717674976369219e+18,-0.3202955837043023,0.3856900764046279,0.0043754962045232,1,14200000000
1.717674976569219e+18,0.1499367614128235,-0.7725463185903528,-0.2962478576137176,1,14200000000
1.717674976769219e+18,0.1022239596209302,-0.4133778790255815,-0.2230935008384768,1,14200000000
1.717674976969219e+18,-0.0637465815663965,-0.2374772347428489,-0.1021706845888139,1,14200000000
1.717674977169219e+18,-0.3073638002653647,0.4340481743528352,0.4544115301657176,1,14200000000
1.717674977369219e+18,0.0450015554438139,-0.0024931805481197,-0.0008807817474767,1,14200000000
1.717674977569219e+18,-0.0900847976656279,0.1421823288521593,0.0485424415928023,1,14200000000
1.717674977769219e+18,-0.0577231701421279,0.1211998335718604,-0.0287816755071162,1,14200000000
1.717674977969219e+18,-0.3843758839,0.0481109915476235,0.0804329245602353,1,14200000000
1.717674978169219e+18,-0.950608588932558,-0.5038000733406978,0.1681582884339186,1,14200000000
1.717674978369219e+18,-0.853949893372093,-0.0889802687249802,0.0549636241470697,1,14200000000
1.717674978569219e+18,-0.7097431871813953,0.2879517132046512,0.0666268792646046,1,14200000000
1.717674978769219e+18,-0.7029167098211765,0.2987524034329412,-0.1012167010938823,1,14200000000
1.717674978969219e+18,-0.5663746439418604,0.3077550965395348,-0.1172434195823721,1,14200000000
1.717674979169219e+18,-0.1175595059501162,0.2406594142466278,-0.0867285924139534,1,14200000000
1.717674979369219e+18,0.5175551821498836,0.4773624139104652,-0.3009290376348837,1,14200000000
1.717674979569219e+18,-0.7298810006967058,0.4828167399941176,0.3192451208716353,1,14200000000
1.717674979769219e+18,-1.0914058203593022,-0.1136563651638372,0.1890981661954535,1,14200000000
1.717674979969219e+18,-0.1489693211013383,-0.7982511010930234,-0.0817138183793023,1,14200000000
1.717674980169219e+18,-0.2515666927134235,-0.0631526375336823,0.075373526300647,1,14200000000
1.717674980369219e+18,0.2363584988599175,0.57295564738,0.1575746999497209,1,14200000000
1.717674980569219e+18,0.5592786702674418,0.3684722150488372,0.038314006769779,1,14200000000
1.717674980769219e+18,-0.0347376071079069,0.1619573004639186,0.2295004770488372,1,14200000000
1.717674980969219e+18,0.0661117392243411,0.4173464101924706,0.3072721714495293,1,14200000000
1.717674981169219e+18,-0.1202870887373848,-0.0174380588971895,-0.0917007463955465,1,14200000000
1.717674981369219e+18,-0.2164059515638954,-0.4948075742405698,-0.516891046717093,1,14200000000
1.717674981569219e+18,0.0332388563360697,-0.5529249654501978,-0.1077963247127674,1,14200000000
1.717674981769219e+18,0.5945025861247059,0.4838516179228235,0.1813190405055294,1,14200000000
1.717674981969219e+18,0.17247340845,0.2539563781999999,0.0582878652854883,1,14200000000
1.717674982169219e+18,0.0020563412941046,0.3980352279081394,0.0083106023583255,1,14200000000
1.717674982369219e+18,-0.1723100382837558,0.481951000727907,-0.0692123999765348,1,14200000000
1.717674982569219e+18,-0.5391187141941176,0.3433527204870588,-0.1433448103397647,1,14200000000
1.717674982769219e+18,-0.7316632880744187,0.1261719891711162,-0.1155812981047558,1,14200000000
1.717674982969219e+18,-0.531541145472093,-0.2081557264910465,-0.160870528588372,1,14200000000
1.717674983169219e+18,-0.3206365311244186,-0.5159037161627907,-0.1597908620496511,1,14200000000
1.717674983369219e+18,-0.216165282531647,-0.3314444482305883,-0.123710896847647,1,14200000000
1.717674983569219e+18,-0.2871242039081395,-0.0735097625208953,-0.0450193135684883,1,14200000000
1.717674983769219e+18,-0.0342403915869197,-0.0605395406172092,-0.1921240766453022,1,14200000000
1.717674983969219e+18,0.0970430566761176,0.0532422555204788,0.0674250979649294,1,14200000000
1.717674984169219e+18,0.0563948944263372,-0.0429096990894686,-0.017104213932779,1,14200000000
1.717674984369219e+18,0.0407823271596267,-0.0714356639496395,0.0071172851439767,1,14200000000
1.717674984569219e+18,0.0025535567927011,-0.0248820852216081,0.0142487762521162,1,14200000000
1.717674984769219e+18,0.0026536686661964,0.0027488914227847,0.0205250565159294,1,14200000000
1.717674984969219e+18,-0.0492420940168604,0.0267857104531325,-0.0318075869309767,1,14200000000
1.717674985169219e+18,-0.0113968898207581,-0.0915089648819535,-0.0598079238593023,1,14200000000
1.717674985369219e+18,0.0212772723679523,-0.0595166975368604,-0.1199141775468604,1,14200000000
1.717674985569219e+18,0.0059020316539294,-0.0272194157832035,-0.0040963869335294,1,14200000000
1.717674985769219e+18,0.012469455075,0.0652133663919767,0.0549210056559302,1,14200000000
1.717674985969219e+18,-0.0014241672754499,0.0186171695968558,0.0054551645333953,1,14200000000
1.717674986169219e+18,-0.0056291898846302,-0.0038569716814639,-0.0088646422926627,1,14200000000
1.717674986369219e+18,0.0183636733257176,0.0207586226493058,-0.0335328830533647,1,14200000000
1.717674986569219e+18,-0.0034414416142127,0.0128210574700814,0.0064780078568488,1,14200000000
1.717674986769219e+18,-0.0044784912016441,0.0100082382207267,0.0074724389337674,1,14200000000
1.717674986969219e+18,-0.0036274587239647,0.0050629910669752,-0.0002299726132352,1,14200000000
1.717674987169219e+18,-0.004719995811343,0.0103349798261441,-0.0079838607070813,1,14200000000
1.717674987369219e+18,-0.0223782494935348,0.0048229906337441,0.0062080909413255,1,14200000000
1.717674987569219e+18,-0.0463440376388267,-0.0677562689317093,-0.0440532948586744,1,14200000000
1.717674987769219e+18,0.0144972584714223,-0.0265151244859529,-0.0272086361373294,1,14200000000
1.717674993169219e+18,0.3941676863905882,-0.2168462174725999,0.1196001365993176,2,10800000000
1.717674993369219e+18,0.2205612517345348,-0.383175588622093,-0.0514973212939069,2,10800000000
1.717674993569219e+18,-0.0696989609755232,-0.0558088903476744,-0.060219902241,2,10800000000
1.717674993769219e+18,-0.3138317800647059,0.249092690469647,0.0053037434997411,2,10800000000
1.717674993969219e+18,-0.7318763822988371,0.1970180977177558,-0.0387543981842558,2,10800000000
1.717674994169219e+18,-0.5635760337683721,0.1456912506213953,-0.0718405394176511,2,10800000000
1.717674994369219e+18,0.270382249174965,-0.0792916698421744,-0.0119473781704651,2,10800000000
1.717674994569219e+18,0.5514833296094117,-0.3342041226011764,0.0300114274460235,2,10800000000
1.717674994769219e+18,0.5630859198953488,-0.0646167081015186,0.0452608184864186,2,10800000000
1.717674994969219e+18,-0.0932243575125697,0.2203446092956977,0.0083248082164302,2,10800000000
1.717674995169219e+18,-0.324600047666279,0.2175886129861627,-0.0103989075491744,2,10800000000
1.717674995369219e+18,-0.5816349001470589,0.2063034093523529,-0.0418550173183882,2,10800000000
1.717674995569219e+18,-0.1243926664310813,0.0527261542997441,0.0149590837886627,2,10800000000
1.717674995769219e+18,0.416478372072093,-0.1669436621073988,0.0574354955784534,2,10800000000
1.717674995969219e+18,0.5047838486895349,-0.3087637334360465,0.0027275822626976,2,10800000000
1.717674996169219e+18,0.26373008777208,-0.0629370395671529,0.0197201526767764,2,10800000000
1.717674996369219e+18,-0.1619679547616988,0.1504503121611627,-0.037688936392279,2,10800000000
1.717674996569219e+18,-0.4442300994069768,0.2195206516315116,-0.0440248821923488,2,10800000000
1.717674996769219e+18,-0.6612629203258824,0.0728186746622905,-0.0712771397497882,2,10800000000
1.717674996969219e+18,-0.0389284214698953,0.0602127989800395,0.0182122941511162,2,10800000000
1.717674997169219e+18,0.5247150881360465,-0.1227340986068256,0.0929935081593023,2,10800000000
1.717674997369219e+18,0.5814971005546512,-0.2204156391518604,0.0578332677339534,2,10800000000
1.717674997569219e+18,0.2640319281172341,-0.0340036080726741,0.0228679026240705,2,10800000000
1.717674997769219e+18,-0.1238528338702558,0.0483932766257802,0.0043470842502209,2,10800000000
1.717674997969219e+18,-0.3650307733313953,0.2495098507786046,-0.0758466759234302,2,10800000000
1.717674998169219e+18,-0.6022736073244186,0.1357895574976046,-0.0245766530281162,2,10800000000
1.717674998369219e+18,-0.2186662352592823,-0.1084716183692941,-0.1111486429822353,2,10800000000
1.717674998569219e+18,0.4155549729267441,-0.214932060872093,0.0485850589819651,2,10800000000
1.717674998769219e+18,0.4756186070790698,-0.2016350989023255,0.0090777349284651,2,10800000000
1.717674998969219e+18,0.3854947440151162,-0.039003005791593,0.0408284967271395,2,10800000000
1.717674999169219e+18,0.0102858844801764,0.0702746031189058,0.0108087135438705,2,10800000000
1.717674999369219e+18,-0.245968966026279,0.1805815732005116,-0.032958286025686,2,10800000000
1.717674999569219e+18,-0.4407069766267442,0.1035557868253802,-0.0398766847831744,2,10800000000
1.717674999769219e+18,-0.2594720018247058,0.1476028979698823,0.0071866446477882,2,10800000000
1.717674999969219e+18,-0.2837289336151162,-0.081294736618236,-0.0256847327745697,2,10800000000
1.717675000169219e+18,-0.1295779153856186,-0.2163242659062825,-0.1198573521079883,2,10800000000
1.717675000369219e+18,-0.0535323533729883,-0.0128210571515116,-0.0302591157091279,2,10800000000
1.717675000569219e+18,-0.0740134549862352,-0.0661997757719564,-0.0186996489961294,2,10800000000
1.717675000769219e+18,-0.1226026922656977,-0.0063856679607674,0.0058103183953953,2,10800000000
1.717675000969219e+18,-0.0027169275501988,0.0278795842429511,-0.0447351903227325,2,10800000000
1.717675001169219e+18,0.0173279610082441,0.0435631824244186,0.0273184412393953,2,10800000000
1.717675001369219e+18,-0.0690259234855294,-0.0833902291961176,0.0337484824532235,2,10800000000
1.717675001569219e+18,-0.0653092580010465,-0.0794053185319767,0.0071314911577325,2,10800000000
1.717675001769219e+18,0.0077388045204872,0.0702849650092058,-0.0547931502598837,2,10800000000
1.717675001969219e+18,0.0719506373697674,0.077586930294722,-0.0315092577779535,2,10800000000
1.717675002169219e+18,0.0262833554749058,0.0141037898483905,-0.003650815385047,2,10800000000
1.717675002369219e+18,0.0001385100814709,-0.0020954082038976,-0.0041481980688139,2,10800000000
1.717675002569219e+18,0.0038179049743883,0.0035160240506813,0.0153142378921395,2,10800000000
1.717675002769219e+18,-0.0031387669161364,0.0025189189238564,-0.0024722057131411,2,10800000000
1.717675002969219e+18,-0.0092091416264313,0.0173386158256511,0.0024860775989534,2,10800000000
1.717675003169219e+18,-0.0174629191406511,0.0018254914290453,0.0051426290744883,2,10800000000
1.717675003369219e+18,0.0077388043885093,-0.0061015446866627,-0.0248323635493255,2,10800000000
1.717675003569219e+18,0.0082305046212211,0.0117034505578164,0.0174635460594705,2,10800000000
1.717675003769219e+18,-0.0041517495333546,0.0238450356863372,0.0010086372129534,2,10800000000
1.717675003969219e+18,-0.016539519045143,0.0083319114611209,0.0178429338434651,2,10800000000
1.717675064169219e+18,0.7885518469174418,-0.1606077154264884,0.0848675861193837,3,11200000000
1.717675064369219e+18,0.5878908760435294,0.2453556353542352,0.2646841147925176,3,11200000000
1.717675064569219e+18,0.1808976605418604,-0.2825959900229999,-0.0494232225354651,3,11200000000
1.717675064769219e+18,0.0404555858706976,-0.2558031781284186,-0.0607455298250232,3,11200000000
1.717675064969219e+18,-0.3822486353802325,0.3338233961953488,0.0379588537070232,3,11200000000
1.717675065169219e+18,-0.6450354772505882,0.4561399172317646,-0.0523187723363293,3,11200000000
1.717675065369219e+18,-0.4377236805489535,0.1742314197501279,-0.1182520564151511,3,11200000000
1.717675065569219e+18,0.2049770967791046,-0.0361617740990767,0.0559154367126279,3,11200000000
1.717675065769219e+18,0.5469335192848838,-0.19899275294115,0.1589669048276162,3,11200000000
1.717675065969219e+18,0.4690381477835294,-0.2581550485929412,0.0813528155675882,3,11200000000
1.717675066169219e+18,0.0002237456360116,-0.1078886646015069,-0.064609604748593,3,11200000000
1.717675066369219e+18,-0.465866077782558,0.1270953892374616,-0.104543114675279,3,11200000000
1.717675066569219e+18,-0.5151153168223529,0.1146880659874235,-0.0951942927786235,3,11200000000
1.717675066769219e+18,-0.2998813334013954,0.1459185483259302,-0.0565120955878139,3,11200000000
1.717675066969219e+18,0.2551816599506976,-0.0587069466509069,0.095053401458779,3,11200000000
1.717675067169219e+18,0.4649071641476745,-0.3298030526813952,0.0497641702933255,3,11200000000
1.717675067369219e+18,0.391882332637647,-0.2985152446188235,-0.0173916796227529,3,11200000000
1.717675067569219e+18,0.0732718091711511,0.1582636994892906,0.0123025322753488,3,11200000000
1.717675067769219e+18,-0.2852205780534884,0.3325874597534884,-0.0186668914608023,3,11200000000
1.717675067969219e+18,-0.4773162414499999,0.2091217439097674,-0.1206244839197558,3,11200000000
1.717675068169219e+18,-0.3814437312270589,0.1735466830279294,-0.0061948872354941,3,11200000000
1.717675068369219e+18,0.0641372500767558,-0.1764191679608953,-0.005568813896872,3,11200000000
1.717675068569219e+18,0.3772267599569767,-0.2820277449720931,-0.0155273302163837,3,11200000000
1.717675068769219e+18,0.4547639700581397,-0.1906253264046511,0.0494942534263953,3,11200000000
1.717675068969219e+18,0.3311264404012705,-0.1560759507152741,-0.0193320737160235,3,11200000000
1.717675069169219e+18,-0.2851211366237209,0.2267089664879535,0.0446925718638837,3,11200000000
1.717675069369219e+18,-0.4613911412488372,0.2583176683167441,-0.044309005376872,3,11200000000
1.717675069569219e+18,-0.3988497853305883,0.1717787693582353,-0.0454339661372823,3,11200000000
1.717675069769219e+18,-0.0073339284273139,0.0694468017573255,0.063757235277279,3,11200000000
1.717675069969219e+18,0.3140803893316395,-0.1873152918288372,0.0232270677897325,3,11200000000
1.717675070169219e+18,0.407358018466279,-0.2217794293747675,-0.0027417887124651,3,11200000000
1.717675070369219e+18,0.3519533349334117,-0.1715272368354117,0.0420849900157999,3,11200000000
1.717675070569219e+18,-0.0883374393991651,0.0012998632733255,-0.0619814658957209,3,11200000000
1.717675070769219e+18,-0.1919145353674418,0.3461259269058139,0.1101687524464651,3,11200000000
1.717675070969219e+18,-0.2793960544483721,0.0837524025218569,-0.0563984460480581,3,11200000000
1.717675071169219e+18,-0.4086092489611764,-0.0035609822939529,-0.0916297171604352,3,11200000000
1.717675071369219e+18,-0.1808053187840348,-0.173592143628907,-0.111077946565407,3,11200000000
1.717675071569219e+18,-0.0354195032083023,-0.2820561571519768,-0.1248295075826744,3,11200000000
1.717675071769219e+18,-0.0755376921693023,-0.1092950743744186,-0.0943857115227209,3,11200000000
1.717675071969219e+18,-0.0199698883295682,-0.0392786053262117,0.020539429972247,3,11200000000
1.717675072169219e+18,-0.0600387736018604,0.0048514029599151,0.0292362724787441,3,11200000000
1.717675072369219e+18,-0.0519412635965116,-0.0281921198889686,-0.0090635286116627,3,11200000000
1.717675072569219e+18,-0.0869781610709411,0.0120052898014235,-0.0118579634002117,3,11200000000
1.717675072769219e+18,-0.0580357052804651,-0.0353520231461046,-0.001179111068186,3,11200000000
1.717675072969219e+18,-0.0054871283659534,0.0054196490866127,-0.0179992016791744,3,11200000000
1.717675073169219e+18,0.0554572878146511,0.0567749093359546,0.0120752341394767,3,11200000000
1.717675073369219e+18,0.0483032339851764,0.0526385774307058,0.0229397691572941,3,11200000000
1.717675073569219e+18,-0.0259724076075709,-0.0471857526855139,0.0047164442521046,3,11200000000
1.717675073769219e+18,0.0188622260654186,-0.0114430600253755,0.0195050545596744,3,11200000000
1.717675073969219e+18,-0.0258729643356511,-0.0265584116302825,-0.0047732691360232,3,11200000000
1.717675074169219e+18,0.02062027962854,-0.0045958589000976,0.0079484286788588,3,11200000000
1.717675074369219e+18,0.0490503107046848,0.024185983311322,0.0071172850114302,3,11200000000
1.717675074569219e+18,-0.025560428902093,0.0285756861479732,-0.0267359887344069,3,11200000000
1.717675074769219e+18,-0.0995034796354651,-0.001811285117879,0.0117484924060697,3,11200000000
1.717675074969219e+18,-0.0636503131065882,-0.0334286768656141,-0.0676263242045058,3,11200000000
1.717675075169219e+18,-0.0180595779358965,-0.0350394875477046,-0.0888026915497674,3,11200000000
1.717675075369219e+18,-0.005728633009772,-0.0324681732071197,0.0177008723681511,3,11200000000
