Timestamps,Gyro_X,Gyro_Y,Gyro_Z
1.717715952465192e+18,-0.0017130628808095232,-0.004875490508333334,0.00047981392003333315
1.717715952665192e+18,0.015515823755849997,0.0508754030329,-0.028833981068749993
1.717715952865192e+18,-0.007927873620450002,-0.013663815403099999,0.00174762470455
1.717715953065192e+18,-0.12357334010814998,0.010117475467250002,0.005614214437504999
1.717715953265192e+18,-0.5342827275400001,0.031232401984349994,0.005823055932350002
1.717715953465192e+18,-0.6867225289250001,0.12926727420799997,0.0267509741945
1.717715953665192e+18,-0.46775971949000006,0.05564673779382501,0.0004989317026500038
1.717715953865192e+18,-0.13596448635718575,-0.033957848324761904,0.028633531771
1.717715954065192e+18,-0.010032775071,-0.12890596482849997,-0.05513453399125
1.717715954265192e+18,0.4471612595050001,0.15514421686350002,0.0271455234951
1.717715954465192e+18,0.6538736820250001,0.28045755103,0.10883597136300001
1.717715954665192e+18,0.5169442624771999,0.027525031149449996,0.05641818130355001
1.717715954865192e+18,-0.7261833377150001,-0.14330350086745,-0.048479639295249996
1.717715955065192e+18,-0.7437034219549999,-0.0618009263127,-0.02857841479155
1.717715955265192e+18,-0.31910247728,-0.15627072025760003,-0.0655964916053
1.717715955465192e+18,-0.025382762565833335,0.039680152295238094,0.06328202068133335
1.717715955665192e+18,0.25987274758554496,0.13013394516369997,0.0202568321302
1.717715955865192e+18,0.549297498175,-0.0436858635385,-0.06447373408166
1.717715956065192e+18,0.6540043532850002,0.010862633028500001,0.09982428222715001
1.717715956265192e+18,-0.2790162809685,-0.11258403544350001,-0.011786747199690003
1.717715956465192e+18,-0.682690927385,0.02427504603525,-0.041994621128649996
1.717715956665192e+18,-0.49986724854500003,-0.1558943429975,-0.023040134087499997
1.717715956865192e+18,-0.1300568963790476,-0.07217203133085714,0.01615663040238096
1.717715957065192e+18,-0.148500425742,-0.060982314217499986,-0.056784980838
1.717715957265192e+18,0.592817620935,-0.091984793261,-0.049771228486000005
1.717715957465192e+18,0.62659743429,0.045202551396205,0.0575781430605
1.717715957665192e+18,0.4144913142649999,0.07738534635705,-0.035147967989849996
1.717715957865192e+18,-0.36701270378,0.06558657279689999,-0.008613895764800001
1.717715958065192e+18,-0.6588840037550001,0.054936508883949985,-0.07096268711550001
1.717715958265192e+18,-0.46492721587999997,0.331346906725,0.06693202816239999
1.717715958465192e+18,0.08830783321066667,0.1617377387090476,0.0960771450574238
1.717715958665192e+18,0.2887097761985001,0.12877268739109998,0.10896453481428
1.717715958865192e+18,0.27910081595499997,-0.09827182348399999,0.067775353647
1.717715959065192e+18,0.42296763659000003,-0.043612519085999994,0.10756388450426002
1.717715959265192e+18,0.5564538821550001,-0.23427509815,-0.14019558224599998
1.717715959465192e+18,-0.31608936078000005,-0.004212618747099998,-0.001950832676949998
1.717715959665192e+18,-0.5975331082900001,-0.023547985869200004,-0.08510345798140001
1.717715959865192e+18,-0.533816749147619,0.19799492117999998,0.022240807979
1.717715960065192e+18,-0.09165671898645,0.0674890383858,0.1291081815885
1.717715960265192e+18,-0.002325137403449995,-0.0097494244971,0.0077944933986
1.717715960465192e+18,0.297122854,0.010963860026350001,0.047008528387
1.717715960665192e+18,0.486898536235,-0.23247533068000004,0.0210736694825
1.717715960865192e+18,0.489666710785,-0.09164354337075001,-0.010520031766750001
1.717715961065192e+18,0.19907295634299998,-0.09121882943275002,-0.07835898035185
1.717715961265192e+18,-0.43168385773500006,-0.051629157549499996,-0.0255222260519
1.717715961465192e+18,-0.6158712165619048,-0.051226610368476186,-0.09992208891142858
1.717715961665192e+18,-0.31922046728650005,0.07987896856150001,-0.012226230839000003
1.717715961865192e+18,0.020703776796450003,0.20113285249700003,0.03145718525261999
1.717715962065192e+18,-0.04606247208514999,-0.069530283144,-0.04759821698180001
1.717715962265192e+18,0.02858403293135,0.12186397499800002,0.016829249390200005
1.717715962465192e+18,0.035042670437900006,-0.012852673836050002,0.008131689111900002
1.717715962665192e+18,-0.022827945057799996,-0.1010018825505,-0.007618521873800003
1.717715962865192e+18,-0.04426617198290476,-0.13286823884733337,-0.03528856321814286
1.717715963065192e+18,0.05331827902195001,-0.04976648483599999,0.043585195160400006
1.717715963265192e+18,0.021146934828455005,0.0729637943128,-0.03043638546895
1.717715963465192e+18,-0.004121036140300001,0.06088741896169999,-0.093301999018
1.717715963665192e+18,0.0234076086903,0.01812315393495,-0.012995224236084998
1.717715963865192e+18,0.035935262219,-0.004845783137200001,-0.02262453429936
1.717715964065192e+18,0.011981135595449999,0.052908196485,0.015139899053899999
1.717715964265192e+18,0.006315717054894999,0.07304282840150002,0.042779352701
1.717715964465192e+18,0.011461810621566667,-0.0014592368224285712,-0.0034949627621904756
1.717715964665192e+18,0.030898395063849997,0.02252230474225,0.008254295692950001
1.717715964865192e+18,-0.00897258555055,9.794682849499979e-05,-0.011568915296465001
1.717715965065192e+18,-0.006915596331735001,-0.00527357817572,-0.007978746155249999
1.717715965265192e+18,0.00349842493230225,-0.005497806001435001,-0.00662581653425
1.717715965465192e+18,0.02015259068562,-0.006569123827200001,-0.013524143397349999
1.717715965665192e+18,0.008749648841159998,0.00841597576585,-0.0015425916185450004
1.717715965865192e+18,-0.0031823846426047614,-0.011475057253285714,-0.0029904555664095243
1.717715966065192e+18,0.00022381241396999982,-0.044128396641999995,-0.0266643194943
1.717715966265192e+18,0.00032833643748000007,-0.021626857249099997,-0.013096551428987002
1.717715966465192e+18,-0.006844434639678501,0.00019673589848,0.002719762630395
1.717715966665192e+18,-0.0034330386726700002,-0.00015603394710000002,-0.0038274379679400007
1.717715966865192e+18,1.8442317370000096e-05,0.00047877264435999996,0.0039015359994750004
1.717715967065192e+18,-0.005196872757875,0.019211841468100004,0.0067299174840805
1.717715967265192e+18,0.00441263873349,0.011908862763522998,0.014386312506944998
1.717715967465192e+18,0.0015580495154761907,-0.008399243732380953,-0.0011209880412190478
1.717715967665192e+18,0.009563521465085,0.0017361092044000004,-0.000817825237725
1.717715967865192e+18,0.0005144302264744997,0.005098594003413,0.0040662438606699994
1.717715968065192e+18,0.005082097015010999,-0.0014248681955999999,-0.005572547187349999
1.717715968265192e+18,0.00665461560745,-0.003298953233685,0.001044361025485
1.717715968465192e+18,-0.0024257730867100003,-0.006682705343759999,-0.003993366076525
1.717715968665192e+18,-0.004714821249899999,-0.002163420699125,-0.005840679432654999
1.717715968865192e+18,-0.0043747749099523805,-0.008274952837000001,-0.004231550276138048
1.717715969065192e+18,-0.008079450607105,-0.01031372414465,-0.0026840457810200003
1.717715969265192e+18,-0.05130490504705,-0.02738334181503,-0.012639700912344998
1.717715969465192e+18,-0.012966721062245001,-0.02488505896085,0.01074744297685
1.717715969665192e+18,-0.04736077282399999,-0.06438368596149999,-0.01776927863193
1.717715969865192e+18,-0.0456313501686,-0.1234761312565,-0.06149749217335
1.717715970065192e+18,-0.0030106683530549995,-0.02865973923985,-0.005858428147900001
1.717715970265192e+18,0.0334712783805,0.07223273683399999,0.01771049437775
1.717715970465192e+18,0.008210002079238093,0.0468108985752381,0.014985011313823808
1.717715970665192e+18,0.0024677976023499996,0.0034177879328499998,-0.028397024748550003
1.717715970865192e+18,-0.003471772745250001,-0.04905343608389999,0.0157863473054
1.717715971065192e+18,-0.005946221144100002,-0.065331945754,0.020670600609300004
1.717715971265192e+18,-0.03475761488109999,0.029541602823950002,0.00957104836185
1.717715971465192e+18,-0.028384619092399997,0.0675252731895,-0.010003068065669998
1.717715971665192e+18,0.0020821990678749997,0.03367773508644999,0.012782274570144997
1.717715971865192e+18,0.02932086143452381,-0.0003244382258285715,0.01198707163895238
1.717715972065192e+18,0.019705533982,-0.011612781148635,-0.00941848887605
1.717715972265192e+18,0.010663741012195,-0.021369782742499996,-0.0224401566205
1.717715972465192e+18,-0.00282380691788,0.0041387470608595005,-0.0032220231952000008
1.717715972665192e+18,-0.0018148831731634996,0.0178982388688,0.0115833308782
1.717715972865192e+18,-0.004114692949095,-0.0031699887471499993,-0.0013147607099500002
1.717715973065192e+18,-0.00017763136413849988,0.0018928633536049997,-0.0028697279514200004
1.717715973265192e+18,0.0011318329543355,0.005821849021725,0.00018128511725200007
1.717715973465192e+18,0.05662036420904762,0.014732063504428572,-0.002819430814761904
1.717715973665192e+18,0.12498793937850002,-0.034796318423570005,-0.02352786886035
1.717715973865192e+18,0.055931073613,-0.0669176554315,-0.0266174940395
1.717715974065192e+18,0.0371829951185,-0.030375085212749998,-0.011167192016700002
1.717715974265192e+18,-0.00400336618166,0.002853144332655,0.0018880024903
1.717715974465192e+18,-0.0053511094186100006,-0.00016586887069500013,-0.001632566575425
1.717715974665192e+18,0.0022151409359450003,0.00441245316729,-0.002110169082945
1.717715974865192e+18,-0.0006176213776666664,0.026176542044285715,-0.0014965618697809523
1.717715975065192e+18,-0.008426986221754999,0.011574141947935001,0.007349269033595
1.717715975265192e+18,-0.010147309909250002,-0.0284252908309,0.0178882008482
1.717715975465192e+18,0.0012496351294249998,-0.054248286038499995,0.004773024877085
1.717715975665192e+18,0.022165873320950002,-0.004995433936499998,-0.00999320929355
1.717715975865192e+18,0.02224521667114,-0.0077044634023500005,-0.03632138859240001
1.717715976065192e+18,0.02050580463915,-0.01457025448355,-0.021443818323199998
1.717715976265192e+18,0.036451399750399995,-0.037466818000499995,0.04710624051465
1.717715976465192e+18,-0.015772557453971426,-0.04366757348242858,0.00033205797509523803
1.717715976665192e+18,0.0020423008069999997,0.056404546091,0.0158418150859
1.717715976865192e+18,0.008921137103,0.005659616517890002,-0.019100183981795003
1.717715977065192e+18,-0.00277841342645,-0.010724099585284998,-0.0035881993591750003
1.717715977265192e+18,0.0005285584483930002,0.016651938529390002,0.008925689733205
1.717715977465192e+18,0.0031580252369755,0.0266695123867,0.012880857951819999
1.717715977665192e+18,-0.0027682433371249995,0.01479152408435,0.0079540247444
1.717715977865192e+18,0.006409300826268572,0.006501339620352381,-0.002041643529828571
1.717715978065192e+18,0.014248143182849999,0.01036164294845,0.0007857719668575
1.717715978265192e+18,0.014445167641250001,-0.0006049914983900001,-0.001600074791238
1.717715978465192e+18,0.00910917151465,-0.0080124718716,-0.0013383439276100004
1.717715978665192e+18,0.004171700187484999,-0.002448659302684,-0.00010364865881099996
1.717715978865192e+18,-0.005840131430739999,0.0037564095691000007,0.0009975296095479998
1.717715979065192e+18,-0.005349765019449999,-0.001023552496933,0.00014928444284500003
1.717715979265192e+18,-0.0062858231188499996,0.000743962347034,0.0007298835320200003
1.717715979465192e+18,-0.005894977937133332,0.0067936053630476174,-0.00011341436762666668
1.717715979665192e+18,0.0012364609806749997,0.008552320511305,0.004764120234484999
1.717715979865192e+18,0.000859115432816,-0.0044091625489400006,0.0004615800105349999
1.717715980065192e+18,0.0019142087376835,0.001110230723775,0.0036463277646549995
1.717715980265192e+18,0.0115637532897,0.005227530549775,0.0017444710014000002
1.717715980465192e+18,0.0114885678979,-0.00190435795808,-0.0018420072737899997
1.717715980665192e+18,0.013164122076649997,-0.00030714279272000004,-0.0023813842388089998
1.717715980865192e+18,0.010666838256823808,0.0031116001273819053,0.002194225167272381
1.717715981065192e+18,0.0098039284576,0.00021157648877449998,-0.00250606692869
1.717715981265192e+18,0.0040455460167499995,-0.0009527242508900002,0.0008111030561808499
1.717715981465192e+18,-0.0064526471306875,-0.0024733070283550003,0.000160406611345
1.717715981665192e+18,-0.010730559838993499,0.01344269411649,-0.00146902554556
1.717715981865192e+18,-0.00475384407325,0.009363411448649998,0.003999965108198501
1.717715982065192e+18,-0.006266827470925,-0.00164914320963,0.0028053265414300006
1.717715982265192e+18,-0.009683407337085,-0.009267522883649999,0.0004673092626350002
1.717715982465192e+18,-0.006678763932142857,0.001957364934742857,0.00032072581919333323
1.717715982665192e+18,-0.001736550027175,-0.0027385236113950003,-0.00016429235100000003
1.717715982865192e+18,0.00800897744455,-0.005327446665460001,-0.000618712429375
1.717715983065192e+18,0.006830443325749999,0.00062161955283,0.001024902355855
1.717715983265192e+18,0.007442907831955001,0.0010289475439150002,-0.0011125324644
1.717715983465192e+18,0.01095657043575,-0.0036994559456940005,-0.00012242235238999998
1.717715983665192e+18,0.006894686555494999,-0.0041865069885300005,0.00035939945368599984
1.717715983865192e+18,-0.0035098738902380956,0.0012334948293204761,-0.0005628714958142856
1.717715984065192e+18,-0.005516087342114999,0.006589179998060001,0.0011930259758963
1.717715984265192e+18,0.00040107496316000007,-0.003552649309915,-0.0030063924496150003
1.717715984465192e+18,-0.010604132408240003,-0.02293903001065,0.00039462892951999966
1.717715984665192e+18,0.00576701485249,-0.041579958796,-0.022241301823100003
1.717715984865192e+18,-0.0044647573843499995,0.00486658937275,0.0051656657486
1.717715985065192e+18,0.009967823186750002,0.0025366237269000003,-0.009369391051909998
1.717715985265192e+18,0.009317120618455,0.0081079505962,0.004127147851824999
1.717715985465192e+18,0.01066008995095238,0.011674144836999998,-0.0011292740014700001
1.717715985665192e+18,0.012455423176000001,0.012515333388550001,0.003662931418630001
1.717715985865192e+18,0.010935544898250002,0.005252498365200001,0.0008867328288
1.717715986065192e+18,0.0031055571628300005,0.00458295461715,0.0015683523263300002
1.717715986265192e+18,-0.0021342700290190005,0.001852403243515,-0.001784919673845
1.717715986465192e+18,-0.0053080439043900005,-0.0029529319610370995,-0.0006606943672200001
1.717715986665192e+18,-0.00444942725584,-0.004054980713075,0.00131713179878
1.717715986865192e+18,-0.005737115773028571,0.0030459062351757145,0.000307039014047619
1.717715987065192e+18,0.0014351069376799998,0.006249333080050001,0.0038319167099150004
1.717715987265192e+18,-0.002377387208925,0.008341693575549997,0.0024468658840499998
1.717715987465192e+18,-0.008631278288400001,-0.0025924150364200005,-0.00040227986177000005
1.717715987665192e+18,-0.0035011910193650008,0.00335502413784,0.002948126348044999
1.717715987865192e+18,-5.335232124499998e-05,0.004208522348260001,0.001272780879105
1.717715988065192e+18,0.0025968309666586998,-0.0005776029837250001,0.004907731374585
1.717715988265192e+18,0.001563998662652381,0.0017273599237685715,0.0015120049162428574
1.717715988465192e+18,0.009409666619999998,0.002513443247905,0.000131379265764
1.717715988665192e+18,0.00755497859765,-0.0028974282788155,-0.0017754969768715
1.717715988865192e+18,0.0052856195663,-0.002917006041355,-0.0002886579953850001
1.717715989065192e+18,0.00544655833234,-0.0008991289592400001,0.000506525003536
1.717715989265192e+18,0.0031034827639233,0.0022033859743650006,-1.9401661119999955e-05
1.717715989465192e+18,-0.0037864294338649995,-0.002574526052866,-0.0012803889403650002
1.717715989665192e+18,-0.00468039923526,-0.0005876914946400001,-6.822832508499995e-05
1.717715989865192e+18,-0.006785281673000001,0.00129260534105,-0.001489177756512667
1.717715990065192e+18,-0.00369423592347,0.00010458008614725002,0.00026681537278050004
1.717715990265192e+18,-0.0049161468339200005,-0.000899765093385,0.00063708765665
1.717715990465192e+18,-0.00623607578985,-0.0009926119004833001,-0.00114050371341
1.717715990665192e+18,-9.450275681499969e-05,0.008184546733059999,-0.0014173928240749998
1.717715990865192e+18,0.00217743034582,0.00531976071683,-0.00413597839568
1.717715991065192e+18,-0.004652507597614999,-0.0019416826664500001,-0.00103583702575
1.717715991265192e+18,0.004302382663171429,-0.0030509109852095238,0.0016248301226219047
1.717715991465192e+18,0.011940823216800001,0.0008370531606669998,0.00059314645472
1.717715991665192e+18,0.0134590781761,0.0023174081405100003,-0.0007415321073150001
1.717715991865192e+18,0.00844371102251,-0.0006833536726019999,0.0005641209893499997
1.717715992065192e+18,0.004639354825624999,0.0020211895113900003,-0.00021185105435800005
1.717715992265192e+18,0.0025512987079690007,0.00261489262342,0.0019668255466684997
1.717715992465192e+18,-0.036780212312855,-0.029109211739700002,0.014835455081365
1.717715992665192e+18,-0.00623449204182,0.06725769070889999,-0.005163532099694999
1.717715992865192e+18,0.5797869023904761,-0.03054303102219048,0.04782871525238096
1.717715993065192e+18,0.345468586315,0.038243630255,-0.04611790513166499
1.717715993265192e+18,0.43078314661499995,0.04849237017495001,-0.04644596825490001
1.717715993465192e+18,-0.20473441612999999,0.004635321675599998,0.02971727133245
1.717715993665192e+18,-0.7182525366599999,0.1700877081545,0.05616736109565
1.717715993865192e+18,-0.669572204355,0.1570387677235,-0.04099844840375
1.717715994065192e+18,-0.24869894213294996,-0.21654999480499998,-0.010640092101549998
1.717715994265192e+18,-0.12904675482380953,-0.14551984102619048,0.057444257097619036
1.717715994465192e+18,0.45327121093,0.10875465042209997,-0.06715461124755
1.717715994665192e+18,0.5803682059099999,-0.1548660317465,-0.059190125104
1.717715994865192e+18,0.26634270110649994,0.067875841595,-0.002621629807045002
1.717715995065192e+18,-0.49277263731000004,-0.0830839016811,0.04418303360744999
1.717715995265192e+18,-0.47868648767,-0.078330787286685,-0.05431311160605
1.717715995465192e+18,-0.4069739587650001,0.03580364630999999,0.044253170487099994
1.717715995665192e+18,0.21289342865199998,0.057648659497199994,0.02417442020961
1.717715995865192e+18,0.4684478044476189,0.09484386239857144,0.0028109602545238013
1.717715996065192e+18,0.47847549617,-0.0036960288459999997,-0.018338203031764998
1.717715996265192e+18,0.47322561593,0.33021550923,0.07319145166909999
1.717715996465192e+18,-0.49558478447649995,-0.30571051054000004,-0.0576912781441
1.717715996665192e+18,-0.718988066915,0.11113683078850001,-0.049737372804049995
1.717715996865192e+18,-0.2661081619645,-0.018871681111999997,0.10114028901500001
1.717715997065192e+18,-0.32264112904349995,-0.2226140485205,0.1890650222015
1.717715997265192e+18,0.36060315193380954,-0.06301286408714286,-0.03266172878809523
1.717715997465192e+18,0.5200045570700002,0.15373726572165,-0.0867750525475
1.717715997665192e+18,0.596422609685,-0.053325434781000006,0.044873353227899995
1.717715997865192e+18,-0.5512422552259999,-0.15482180428667497,-0.05308531787655
1.717715998065192e+18,-0.7101657837550002,-0.11351800002275003,-0.027109845541350003
1.717715998265192e+18,-0.2341617702475,0.04685266511695,0.051656390771
1.717715998465192e+18,0.11269872616950001,0.07043074812359999,0.012294064654000002
1.717715998665192e+18,0.317593465746,0.07336692540100001,0.02150060511445
1.717715998865192e+18,0.7477727844714286,0.3220878573376191,0.17280827994761905
1.717715999065192e+18,0.321858736865,-0.23687316972560502,-0.0843112714485
1.717715999265192e+18,0.28487358812995,0.0049677581545000005,0.015159621510499998
1.717715999465192e+18,-0.46036831066,-0.07569170128625,-0.06257169542805
1.717715999665192e+18,-0.5852275818550001,0.009606750420129997,-0.10659061671834998
1.717715999865192e+18,-0.3091357410865,-0.2471136365085,-0.002944324210500002
1.717716000065192e+18,-0.13946781769637,0.10576307993315,-0.026801404219499995
1.717716000265192e+18,-0.024548891424912858,0.13735357157809525,0.07001125360047619
1.717716000465192e+18,0.07881954945600002,0.12220464273000001,0.06090513747199999
1.717716000665192e+18,0.0597664787425,-0.09664423797300001,0.04307805269495
1.717716000865192e+18,-0.028504209511450003,-0.0691526024615,-0.01140811806495
1.717716001065192e+18,-0.039183475402000005,0.021177026304099997,-0.0053154487276
1.717716001265192e+18,-0.02021078285715,0.063802677019,-0.009148508543600001
1.717716001465192e+18,-0.010749011306660002,0.1003385596,0.026735422248035
1.717716001665192e+18,-0.00023108325530500005,0.0465889468795,0.010092969913730002
1.717716001865192e+18,0.0029101474053000002,0.015083596287809522,0.0020788952350000002
1.717716002065192e+18,-0.002727847459162999,-0.00891704334685,0.003629838931387999
1.717716002265192e+18,-0.00022104200309499986,0.014793889771085,0.0132996893723
1.717716002465192e+18,-0.0014522156619000003,0.0205551001256,0.003115348226965
1.717716002665192e+18,0.003201036527605,0.036141732894,0.001240644825055
1.717716002865192e+18,0.00047093515156500015,0.021713151782999998,-0.006768698978285001
1.717716003065192e+18,0.012219608568700004,0.008225094702065,-0.01554054800635
1.717716003265192e+18,-0.021130369255333337,-0.0013488426677285713,0.0011517195736666665
1.717716003465192e+18,-0.0104196325934,0.023756922455185,-0.012966588174475
1.717716003665192e+18,0.044636328772375,0.1114319141995,-0.004342692857250001
1.717716003865192e+18,0.2422082685,-0.0492957361245,0.0384184597528
1.717716004065192e+18,0.099544519187,-0.1081413567165,-0.0278661824531
1.717716004265192e+18,0.0452649245955,-0.093934338916,-0.020729559590065
1.717716004465192e+18,0.03565426312895,-0.03530811960750001,0.00192186880255
1.717716004665192e+18,-0.0439059237955,0.029143867257499994,-0.013625279663255
1.717716004865192e+18,-0.023669952787261903,-0.051841197624285726,-0.028243979550785715
1.717716005065192e+18,-0.000796151009795,-0.0182962771737,0.0013749593519568001
1.717716005265192e+18,0.010484071564295,-0.0019094524793499996,0.0020812898524
1.717716005465192e+18,0.03732699499603549,0.007488571269819999,-0.004151498759298501
1.717716005665192e+18,0.05977810938,-0.0013961169864899997,0.002181166602403
1.717716005865192e+18,0.03264377010205001,-0.07520309439949999,0.008458152553149998
1.717716006065192e+18,0.016016131889165,-0.058947856354500006,-0.010773589332804999
1.717716006265192e+18,-0.026287109412571428,1.5346377904762122e-05,-0.0028367258409190484
1.717716006465192e+18,-0.04993381847095,0.017754782794750002,-0.007223560497789999
1.717716006665192e+18,-0.03811974013200001,0.02203945325476,0.010581487603760499
1.717716006865192e+18,-0.006897426140675,-0.012133720749205,-0.004444702935954999
1.717716007065192e+18,0.015738704230400004,0.007088568539239999,0.0046157860780350005
1.717716007265192e+18,0.034948714217499996,-0.00505500552275,0.0017175556510684998
1.717716007465192e+18,0.0245453383308,-0.007020516704922,-0.0033886406220900002
1.717716007665192e+18,0.014537940697700003,-0.002552918088545,-0.0029540064045759998
1.717716007865192e+18,0.006928405015142858,0.007445915824766667,-0.004580952349657143
1.717716008065192e+18,-0.033436164606225005,-0.0213349516742,0.011819713434850002
1.717716008265192e+18,-0.01192934589387,-0.0068860578579499985,-0.0014705628853500003
1.717716008465192e+18,-0.016337595693300004,0.0055561086394500005,0.0039731248747999996
1.717716008665192e+18,-0.07701828747879999,0.004475262389150001,0.03495467766174
1.717716008865192e+18,-0.042514810335049995,0.0154960757349,0.01351541355195
1.717716009065192e+18,-0.0026011645622649997,0.055659115873400014,-0.012743125088064999
1.717716009265192e+18,0.03690998316190477,0.06540779654285715,0.0014544141118714286
1.717716009465192e+18,0.08705101505650001,-0.010554089653500002,0.01243882838219
1.717716009665192e+18,0.023887816072,-0.0473475787785,-0.01231227053795
1.717716009865192e+18,0.0100714167873,0.013327086343749999,-0.0024868572247700002
1.717716010065192e+18,0.0016746618380949995,0.020122443628249997,-0.00170848973796795
1.717716010265192e+18,-0.0013502390703200005,-0.0028013586303849993,-0.003924920665804999
1.717716010465192e+18,-0.00029001146329500014,0.010519845644199999,-0.0009925894089700005
1.717716010665192e+18,0.0010896714697649999,0.0359683611435,0.0034209520556649996
1.717716010865192e+18,-0.007586552317533334,0.014630880250714285,-0.001050243353942857
1.717716011065192e+18,-0.00210008240251,0.01139203160995,0.000423588010035
1.717716011265192e+18,0.004589576461170501,0.005130468611735,0.0014095931430500004
1.717716011465192e+18,-0.004940517005173001,-0.0006699373364800002,-0.0010904317489489998
1.717716011665192e+18,-0.04975479114935,-0.00943499804727,-0.0028848261217799998
1.717716011865192e+18,-0.15687539828849997,-0.053759700885749995,0.007156454247545002
1.717716012065192e+18,0.0489542654635,0.022633974557350004,-0.0036787770343950006
1.717716012265192e+18,0.08739635588761904,-0.014375982373809527,-0.009015732189857142
1.717716012465192e+18,-0.06767637962400001,0.00644078280345,0.01594533913355
1.717716012665192e+18,-0.075289400207,0.0034626742359499993,0.008573717426365002
1.717716012865192e+18,0.0814628153635,-0.01974612198533,-0.00912970434956
1.717716013065192e+18,-0.017091818630050003,0.0210425039639,0.01201023132332
1.717716013265192e+18,-0.04622680563800001,0.020419887849410002,0.020883240946600004
1.717716013465192e+18,0.012702069797,0.007219098205945,0.0045022275297
1.717716013665192e+18,0.08471666951699999,-0.003275241737645,0.0060781960836899995
1.717716013865192e+18,0.010564370735571427,0.010321392366828571,0.004435472512428571
1.717716014065192e+18,-0.030309142079249996,-0.0451190778983,-0.035371949384
1.717716014265192e+18,0.00598495586165,-0.061652667216050006,0.075936278328
1.717716014465192e+18,-0.04097604457955,0.06706126551005,-0.018053309154050002
1.717716014665192e+18,-0.21102970708399998,0.16341235637699997,-0.03662335667765
1.717716014865192e+18,0.03167179224599999,0.038448407629449996,0.023080592928500003
1.717716015065192e+18,0.0029818334848999996,-0.046369092585550005,-0.023016976320900003
1.717716015265192e+18,0.007858172735123809,-0.045641834570666666,0.01617469435748571
1.717716015465192e+18,-0.0037523719368214997,-0.0410261241724,0.01658446304585
1.717716015665192e+18,-0.00214227042735,-0.0208170872424,-0.025416210666499996
1.717716015865192e+18,-0.0019314634144,-0.033588339993349994,-0.047877053171
1.717716016065192e+18,-0.028215559222749997,0.0118706753138,-0.0378542686703
1.717716016265192e+18,0.0363794564385,0.08939551590450001,0.076733626844045
1.717716016465192e+18,-0.013571262926814997,0.05343041701375001,0.08726412021049999
1.717716016665192e+18,-0.027290941495499998,-0.01510729774547,-0.0024331688187
1.717716016865192e+18,-0.036319657805714285,-0.06334465085809524,-0.08537099758857143
1.717716017065192e+18,0.018092986448995,-0.03286771565894999,-0.03946059182135
1.717716017265192e+18,0.042426589787899996,0.005251766042705,0.009844551666149998
1.717716017465192e+18,0.06296525804605,-0.0389745924618,0.012654576206295004
1.717716017665192e+18,0.16509312763349998,-0.015163695044195,0.06212907293265
1.717716017865192e+18,0.070957708545,-0.032162786042750004,0.00149546040925
1.717716018065192e+18,0.03262795223750001,0.014425391308199998,0.006666513672299999
1.717716018265192e+18,0.024892520008871426,-0.005603450483523809,-0.004540818166880953
1.717716018465192e+18,-0.014057063725425001,0.0347962301695,-0.0171934836767
1.717716018665192e+18,0.0009700121823449998,0.0167370434852,-0.004189979401375
1.717716018865192e+18,-0.01052449848545,-0.0053676260755265,-0.007294992066775
1.717716019065192e+18,0.0002344000510150001,-0.007430425542195,-0.004712353903040799
1.717716019265192e+18,-0.02535681663946,0.022442424844800003,0.021525786724749998
1.717716019465192e+18,0.00686058008,0.040614764393,0.0001555464695099999
1.717716019665192e+18,0.01816073678788,0.005523464211670001,0.010461272567805002
1.717716019865192e+18,-0.004128503652514285,-0.02071717017810952,-0.003770598099344761
1.717716020065192e+18,0.00946349172948,-0.016017102286899995,-0.002435355551785
1.717716020265192e+18,0.019242182421000002,-0.010763482004150001,0.00043988135872000003
1.717716020465192e+18,0.01797102030725,-0.0141404559845,-0.0018760671722299997
1.717716020665192e+18,0.011908393480690001,-0.00916252424865,-0.0006821663934709999
1.717716020865192e+18,0.012834004801799997,-0.0043264127336,-0.0015312807867200004
1.717716021065192e+18,-0.007447774900434999,0.001984517427855,0.00113451058272
1.717716021265192e+18,-0.040763902876460006,0.0061903527934,-0.02705358497385
1.717716021465192e+18,-0.00242055639277619,-0.005173368678804762,0.006667471368666666
1.717716021665192e+18,0.012109846155200001,-0.003718345589183,-0.0042523891316000005
1.717716021865192e+18,-0.006154449679495002,-0.00976435430345,-0.00025187137074049996
1.717716022065192e+18,-0.00879323828285,-0.016180332517200004,-0.008493004832465002
1.717716022265192e+18,-0.004104689927839999,-0.0049489657045499996,-0.0014320350368149997
1.717716022465192e+18,-0.003770894630035001,-0.006099087093540001,-0.0027166997606350002
1.717716022665192e+18,0.00333132210595,-0.004767165635755,0.00047832829305500006
1.717716022865192e+18,0.015871128089714286,0.0017560503911285717,0.004877727988728571
1.717716023065192e+18,0.016496172408,-0.0028767124750485006,0.002296657219907
1.717716023265192e+18,0.0124651312388225,-0.00647784057055,0.004999164608815
1.717716023465192e+18,0.011376563378099998,-0.005378665216500001,0.00083305663434
1.717716023665192e+18,0.0016857190463,0.001843745820227,-0.0002936089701755
1.717716023865192e+18,-0.004775431961969999,-0.0012103382498100002,-0.0026438432047
1.717716024065192e+18,-0.009542110468769998,-0.001889626379167,-0.00027852901838500003
1.717716024265192e+18,-0.006395632668750001,0.0038408869061449997,-0.004002883995335
1.717716024465192e+18,-0.007906327157095237,0.0027793425889714287,0.00014540612975066664
1.717716024665192e+18,-0.019879404455500002,0.0032100780980902502,-0.00992837010941
1.717716024865192e+18,-0.0088580824323,0.00170417142802,0.0004928884444697499
1.717716025065192e+18,-0.0076695693070660004,0.002576314483275,-0.0027636574230549995
1.717716025265192e+18,-0.007062458240899999,0.003327757690550001,0.00055770515464
1.717716025465192e+18,0.007540385426449999,-0.0037645496776299997,0.000541819486525
1.717716025665192e+18,0.0096518075329,-0.001200463017465,0.002269986621115
1.717716025865192e+18,0.01376596221866667,-0.0021195796406904763,0.0024438944113571426
1.717716026065192e+18,0.011613624984599998,-0.00019226421135299998,0.002133388887215
1.717716026265192e+18,0.005231557660900001,-0.00253482608824,0.00022112203279500003
1.717716026465192e+18,-0.0031837707674835,-9.839080737299982e-05,-4.348778156950001e-05
1.717716026665192e+18,-0.006834008976085,0.0018713992204959999,-0.00019107357368999996
1.717716026865192e+18,-0.013881177152349999,-0.00262105914902,0.0025488183253700005
1.717716027065192e+18,-0.1086736725555,0.0158894144235235,0.00010072665755000018
1.717716027265192e+18,-0.066526018644,-0.045657296198000005,-0.050647779635
1.717716027465192e+18,-0.039722701890666665,-0.008301099108142859,-0.039834046646904764
1.717716027665192e+18,0.003469290963,-0.036865866451928,-0.0476033238799
1.717716027865192e+18,0.016114280943600002,-0.011706563527900001,0.0167020191785435
1.717716028065192e+18,0.046631278050500005,0.0433627068995,0.0931732635995
1.717716028265192e+18,-0.0364629184075,-0.0734453155161,0.022155128972399997
1.717716028465192e+18,-0.003872503020115,0.03642742858485,0.011689212265554999
1.717716028665192e+18,-0.02027787431235,-0.0029212320222,-0.04981185859095
1.717716028865192e+18,-0.003227781986742858,0.011176742048098095,0.0008458078595428579
1.717716029065192e+18,0.015134497172052,-0.0315979886345,-0.00698405671975
1.717716029265192e+18,0.00228835912975,-0.09735454786449999,-0.0306396145373
1.717716029465192e+18,0.11314841499749999,-0.2087965985775,-0.0742162836269
1.717716029665192e+18,0.019306595937849995,0.46639507226050003,0.09267884357384999
1.717716029865192e+18,0.137227344662665,-0.03750316722949999,0.032747230582499995
1.717716030065192e+18,0.586332437765,-0.14938764133900007,-0.13741929547034998
1.717716030265192e+18,-0.161938273167,-0.11696120143075002,0.04310960620444999
1.717716030465192e+18,-0.39375603198095244,-0.059543925063557136,0.037004041202904764
1.717716030665192e+18,-0.29331225119500004,-0.014944144163,-0.005662601163375
1.717716030865192e+18,-0.45385409594,0.4152515493349999,0.08598653837049999
1.717716031065192e+18,-0.006920247737250007,-0.11378573216700001,0.09786563299302001
1.717716031265192e+18,0.41064820960500004,-0.005812378871099998,-0.0835877379415
1.717716031465192e+18,0.49809302762500013,-0.21122213816675,-0.12470582350849999
1.717716031665192e+18,0.3673827899585,0.07812415869975001,0.0028909290424500023
1.717716031865192e+18,-0.28144123103952384,0.2431484560190476,0.1565459991495238
1.717716032065192e+18,-0.4438458343905,-0.15758433044050002,-0.16018848091697005
1.717716032265192e+18,-0.52284073531,0.13560174629094998,-0.05715869879200001
1.717716032465192e+18,-0.04789921539099999,-0.07446588601195,0.050097310824600005
1.717716032665192e+18,-0.186326579007,0.06328900675155,0.046044192742350006
1.717716032865192e+18,0.18183049606600002,0.0638495447105,0.12020709975419999
1.717716033065192e+18,0.6902735799550002,-0.25334183201649996,0.006718494276700003
1.717716033265192e+18,0.549130535125,-0.0516855245545,-0.02302144381600001
1.717716033465192e+18,-0.472493668802619,0.11846699659023807,0.12557719009000004
1.717716033665192e+18,-0.6832029342649999,-0.22320022433900003,-0.12577095589850001
1.717716033865192e+18,-0.20246902731449995,-0.0423122895458,0.031976505181399995
1.717716034065192e+18,0.087220135613,0.131007628793,-0.01479061790315
1.717716034265192e+18,0.42255894801499994,0.07738942561894999,-0.07924153944935002
1.717716034465192e+18,0.3759187228905,-0.0221363794925,-0.08356779427095
1.717716034665192e+18,0.46109527647500004,0.028592590567749997,-0.018348192538500004
1.717716034865192e+18,-0.047549146078095225,0.14818436982604766,0.11761474561338096
1.717716035065192e+18,-0.86785219012,-0.006109630364499996,-0.0576348618122
1.717716035265192e+18,-0.47412262410350003,-0.13920379140995,-0.041030279462999995
1.717716035465192e+18,0.06646409657999998,-0.14424598451904996,-0.019717256389699993
1.717716035665192e+18,0.06634621293575,-0.14513066075,-0.0036441693903000007
1.717716035865192e+18,0.43571710587000007,-0.1473413298785,-0.19429779463500002
1.717716036065192e+18,0.35173195824500003,-0.1295413529552,0.0315168334418
1.717716036265192e+18,0.3180758364549999,0.17639635707505,0.07979488199645
1.717716036465192e+18,0.29149597129142857,0.05120291981966666,0.0003097076849047622
1.717716036665192e+18,-0.23890119079664998,0.215784583241,0.09613984010995
1.717716036865192e+18,-0.6220004186150001,-0.0530342579722,-0.09311638837455
1.717716037065192e+18,-0.350381264095,-0.187118586855,0.048028130991499995
1.717716037265192e+18,-0.002706717416499996,-0.1423974798055,0.06826783246800001
1.717716037465192e+18,0.05793904329705,0.18759673610499997,-0.036196006811299995
1.717716037665192e+18,0.01946701384144999,-0.006361066662399997,0.0004844579608499997
1.717716037865192e+18,-0.02463240014675476,0.001517552826047622,-0.02509756062580952
1.717716038065192e+18,0.007983102427500003,-0.00021195774943500004,-0.03328608819277
1.717716038265192e+18,0.005109497613539999,0.00727465919976,0.005867923598140001
1.717716038465192e+18,0.00933438438245,0.008364673668738998,0.011612817516029997
1.717716038665192e+18,0.007049306924595,0.00334725033001,0.00538661395548
1.717716038865192e+18,0.015098927147244997,0.016963365988195,0.00883560719693
1.717716039065192e+18,0.0052025186294,0.035607371292699995,0.025210612581395
1.717716039265192e+18,-0.02031582158567,0.01557411007775,0.01083098568433
1.717716039465192e+18,-0.022773262368714287,0.022066484117333328,0.019489802908
1.717716039665192e+18,0.0036489707915555547,0.025527559014888887,-0.006415264111333335
1.717716039865192e+18,,,
