Timestamps,Acc_X,Acc_Y,Acc_Z,Label
1.7176760842995418e+18,-0.9153937831233722,4.19144621422093,9.062175817313951,30s-1
1.7176760844995418e+18,-1.285724822820349,1.0827800682639537,9.849080584662792,30s-1
1.7176760846995418e+18,-1.2902878646987208,1.937017763152326,8.68316384794186,30s-1
1.7176760848995418e+18,2.8461640042552947,2.702144237152942,8.61388004524706,30s-1
1.7176760850995418e+18,3.981935110209303,1.6790380799534883,9.37852922695349,30s-1
1.7176760852995418e+18,3.7540048374999992,1.9956140781302325,7.783518197906978,30s-1
1.7176760854995418e+18,5.762306440720929,-1.1799954569581397,8.019572878976744,30s-1
1.7176760856995418e+18,4.3920400549411776,-0.9089910929844708,10.36621434824706,30s-1
1.7176760858995418e+18,3.67198110322093,-0.3036658870454302,10.94093115389535,30s-1
1.7176760860995418e+18,4.182487046947674,-1.3057021100548256,8.607483915988835,30s-1
1.7176760862995418e+18,3.6379250972116255,1.597737771189128,8.828291299802325,30s-1
1.7176760864995418e+18,2.667011968848235,2.906688360658824,8.450999142188236,30s-1
1.7176760866995418e+18,3.371598404453489,4.817976211418605,8.485505564069769,30s-1
1.7176760868995418e+18,2.826201778453489,4.800503043244186,7.913676633395347,30s-1
1.7176760870995418e+18,3.106052705776471,5.88364122897647,7.915288375329411,30s-1
1.7176760872995418e+18,2.8575310526279067,5.895692442744187,6.6474839144418585,30s-1
1.7176760874995418e+18,2.7672159062093025,6.862504027662792,7.208127831302326,30s-1
1.7176760876995418e+18,2.4831377863837214,8.645602120906975,6.023903187380231,30s-1
1.7176760878995418e+18,0.7636200831129413,9.533286936141176,2.1907557978105885,30s-1
1.7176760880995418e+18,0.5956458964044767,9.145423789348836,-0.4134574995998837,30s-1
1.7176760882995418e+18,0.6012105893656977,8.965628202569768,-1.2474396552673257,30s-1
1.7176760884995418e+18,1.392789723233721,9.472628343813955,-3.0408323849976746,30s-1
1.7176760886995418e+18,2.4409606091882345,9.496127745705884,-2.0123356833376467,30s-1
1.7176760888995418e+18,3.2663698439081386,9.632391031244186,-1.7899426294465115,30s-1
1.7176760890995418e+18,2.839557082333721,8.931405294860467,-1.2404837778223257,30s-1
1.7176760892995418e+18,2.556870116744186,9.664054149883722,-0.6640361058134883,30s-1
1.7176760894995418e+18,1.618955649329412,9.750498962564706,-2.0973512565411765,30s-1
1.7176760896995418e+18,0.459644534836279,9.794045625627906,0.2328828618750465,30s-1
1.7176760898995418e+18,0.8891840260017443,9.911572212174418,0.147798534862,30s-1
1.7176760900995418e+18,0.8351232526348235,9.790529396788235,-0.0246038477950117,30s-1
1.7176760902995418e+18,1.635744691868663,9.871172461395348,0.1785157006480232,30s-1
1.7176760904995418e+18,0.8798909654289536,10.014185329,-0.048301629258686,30s-1
1.7176760906995418e+18,0.5874101390755815,9.991425802569768,0.7289761997388373,30s-1
1.7176760908995418e+18,0.4582396115857058,9.432957267705882,2.206632884823529,30s-1
1.7176760910995418e+18,2.433111102029069,7.882458614720929,3.723009458872093,30s-1
1.7176760912995418e+18,2.238902937465116,7.286200612046511,5.627251098360465,30s-1
1.7176760914995418e+18,2.430050514383721,5.534710080104651,7.570890842453486,30s-1
1.7176760916995418e+18,2.3271748579930938,3.173502133858824,8.667366628070587,30s-1
1.7176760918995418e+18,2.158993784775,4.280871011511628,10.341334287348836,30s-1
1.7176760920995418e+18,-3.125471553162791,3.212169639589535,8.079449132441862,30s-1
1.7176760922995418e+18,-2.7534914041811764,3.077001012775294,8.947523975258823,30s-1
1.7176760924995418e+18,2.858755296341279,2.007856432537244,8.246835409127906,30s-1
1.7176760926995418e+18,-0.2516915482316279,4.529335009501163,9.066238098290698,30s-1
1.7176760928995418e+18,-0.6893555056881396,3.9911725215813942,9.781970273511629,30s-1
1.7176760930995418e+18,-1.927601618632941,4.836260520694118,9.469159305694117,30s-1
1.7176760932995418e+18,-1.6330179892662793,2.5128533077906976,10.457135788162793,30s-1
1.7176760934995418e+18,-1.3518891443652326,0.2316029705226744,8.952106049023255,30s-1
1.7176760936995418e+18,-1.6516040966674417,0.5399988621653489,10.20666843755814,30s-1
1.7176760938995418e+18,-1.31346257676,-0.5804706235089999,10.077442965905885,30s-1
1.7176760940995418e+18,-0.4318766619398488,-1.0683674895651163,9.982967399127908,30s-1
1.7176760942995418e+18,0.5074453415816279,-0.7648685332209303,9.91808292476744,30s-1
1.7176760944995418e+18,0.4768394681406977,-0.8402702787569768,9.89304174377907,30s-1
1.7176760946995418e+18,0.0568084241897529,-0.9547080797611764,9.874756756835296,30s-1
1.7176760948995418e+18,-0.0513622157058837,-0.9697609329174416,9.906063146465115,30s-1
1.7176760950995418e+18,0.5059985206569767,-1.094799828409302,9.741681819697677,30s-1
1.7176760952995418e+18,0.2848303467475294,-1.120629227889412,9.845705099682354,30s-1
1.7176760954995418e+18,0.3096757675813953,-1.0998637142151162,9.805675894767443,30s-1
1.7176760956995418e+18,0.3816273867430232,-1.055735617034884,9.839620545883722,30s-1
1.7176760958995418e+18,0.348795633677907,-1.039876203806977,9.797328838023256,30s-1
1.7176760960995418e+18,0.340906848277647,-1.044002597422353,9.816878644117647,30s-1
1.7176760962995418e+18,0.3382226992802325,-1.0336993842197677,9.81925382167442,30s-1
1.7176760964995418e+18,0.3293748199953488,-1.0224030336523258,9.820533619372092,30s-1
1.7176760966995418e+18,0.3837976251232558,-1.0812776060465117,9.836504370639537,30s-1
1.7176760968995418e+18,0.350421837502353,-1.0369648807294118,9.805843544000002,30s-1
1.7176760970995418e+18,0.3682720983430233,-1.0620237200511629,9.821646601639536,30s-1
1.7176760972995418e+18,0.3749497435837209,-1.0606325531627905,9.82314906005814,30s-1
1.7176760974995418e+18,0.3405042238767441,-1.079942071127907,9.815914919186048,30s-1
1.7176760976995418e+18,0.35408145084,-1.0960816706117646,9.822733980023528,30s-1
1.7176760978995418e+18,0.3558628080976744,-1.082167949860465,9.817528746790698,30s-1
1.7176760980995418e+18,0.3381114026872093,-1.0668650213139537,9.81146316745349,30s-1
1.7176760982995418e+18,0.35751585224,-1.085046543752941,9.816540807870592,30s-1
1.7176761014995418e+18,1.1427675800872092,-0.2805723690044186,12.17484851193023,30s-2
1.7176761016995418e+18,1.4629606342139534,3.340324745619768,9.627215851127907,30s-2
1.7176761018995418e+18,0.66231104411,3.137880838186047,8.890170790395347,30s-2
1.7176761020995418e+18,0.312474486467153,3.371233760564707,4.693592001400001,30s-2
1.7176761022995418e+18,0.4085605532472092,2.369172656255814,8.165089906651161,30s-2
1.7176761024995418e+18,-1.126574284432558,1.6957321929302325,10.494419275523256,30s-2
1.7176761026995418e+18,-1.2368110681220934,0.2526932001167442,13.249838008372096,30s-2
1.7176761028995418e+18,-1.067987122283529,0.4102142526523882,11.44518037635294,30s-2
1.7176761030995418e+18,-0.0688353872161279,1.6003531701976743,9.62048256688372,30s-2
1.7176761032995418e+18,-0.3165759991606976,3.025807702302325,7.222707324232558,30s-2
1.7176761034995418e+18,0.1347299889643176,3.1735584511764707,5.869734702376471,30s-2
1.7176761036995418e+18,-1.1503912153873257,1.7170450160511628,10.213067886662788,30s-2
1.7176761038995418e+18,-0.9547362299283372,0.5857963697096512,12.520527928604652,30s-2
1.7176761040995418e+18,-0.8427187460627906,0.3455681072338604,12.159434340581395,30s-2
1.7176761042995418e+18,-0.4568883688999999,1.7256473919952946,9.956112693435294,30s-2
1.7176761044995418e+18,0.0757912661752907,2.8250331823255816,7.336950679186046,30s-2
1.7176761046995418e+18,0.5842939008761627,3.032596643569767,5.803596552046512,30s-2
1.7176761048995418e+18,-1.1556776902159072,2.18013966355814,10.248904571906976,30s-2
1.7176761050995418e+18,-1.7487873881762357,0.6860363275868235,11.2718836618,30s-2
1.7176761052995418e+18,-1.3092635208197674,-0.4839622899840117,12.714569147093025,30s-2
1.7176761054995418e+18,-1.1338084063023257,1.1481097020965116,10.384182530813954,30s-2
1.7176761056995418e+18,-0.6634796380139534,2.398387350302326,8.932907769883721,30s-2
1.7176761058995418e+18,0.2689532645804117,3.5058511397764693,5.039059293964706,30s-2
1.7176761060995418e+18,-0.2849128341349418,2.429382745558139,8.480274704953487,30s-2
1.7176761062995418e+18,-0.752014077392442,1.0012571569255817,10.636931308523256,30s-2
1.7176761064995418e+18,-1.1120713628607646,-0.5401585994157294,12.987959772235294,30s-2
1.7176761066995418e+18,-1.4511634679337209,-0.2877508331667442,11.530288884302326,30s-2
1.7176761068995418e+18,-0.4716086489524419,1.1685878011011628,9.536566801011627,30s-2
1.7176761070995418e+18,0.1348884202815697,2.0909931146395357,8.631912985500003,30s-2
1.7176761072995418e+18,0.0520790812597999,3.1324581819647053,6.592029341541177,30s-2
1.7176761074995418e+18,-0.1420668844804651,2.5209777730000003,8.308214115511628,30s-2
1.7176761076995418e+18,-1.029303268748837,1.4961262670372093,9.611634642430232,30s-2
1.7176761078995418e+18,-1.3361966808946513,0.5581397955110465,11.968008473604648,30s-2
1.7176761080995418e+18,-0.7710519056522352,-0.4951172319244472,10.258959658423532,30s-2
1.7176761082995418e+18,0.3354959954128488,-0.9381534159127912,9.957147132430237,30s-2
1.7176761084995418e+18,0.3982102057972675,-1.0411560805976745,9.785698580197677,30s-2
1.7176761086995418e+18,-0.0490387881483529,-0.4174771723822587,9.956844621600002,30s-2
1.7176761088995418e+18,0.7667605381688954,-0.1038930189131162,9.832442117360465,30s-2
1.7176761090995418e+18,1.0269660857918606,-1.695064435139535,9.692768063627907,30s-2
1.7176761092995418e+18,0.5546340297790698,-1.0423246698569766,9.935055233790695,30s-2
1.7176761094995418e+18,0.4984390330647059,-1.253444957051765,9.7312437056,30s-2
1.7176761096995418e+18,0.6760558645325582,-1.4319652388139534,9.82520800967442,30s-2
1.7176761098995418e+18,0.9247424761779068,-1.2914564678720932,9.766110841558138,30s-2
1.7176761100995418e+18,0.5269218035209302,-1.206539080662791,9.81274308711628,30s-2
1.7176761102995418e+18,0.441180194122353,-1.019736553652941,9.795765405552942,30s-2
1.7176761104995418e+18,0.4591993599418605,-0.984117869694186,9.79165290122093,30s-2
1.7176761106995418e+18,0.4894713468267442,-0.9266344801023256,9.80478553995349,30s-2
1.7176761108995418e+18,0.4744466456581395,-0.9244642486453488,9.81168573956977,30s-2
1.7176761110995418e+18,0.5027179609258824,-0.966925549507059,9.867550187858823,30s-2
1.7176761112995418e+18,0.5418908595988372,-0.8800579059953486,9.81046152111628,30s-2
1.7176761114995418e+18,0.482125935505814,-0.8960286067034883,9.80690010205814,30s-2
1.7176761116995418e+18,0.5060397621447059,-0.8569683159070588,9.843790817235297,30s-2
1.7176761118995418e+18,0.4661552372360465,-0.9290829453418604,9.829937990290698,30s-2
1.7176761120995418e+18,0.4576412418569767,-0.9477247034581396,9.828769406569767,30s-2
1.7176761122995418e+18,0.4190778434255814,-0.9628050535406976,9.81368909877907,30s-2
1.7176761124995418e+18,0.4524405353188236,-1.011966919805882,9.839624472176473,30s-2
1.7176761430995418e+18,-0.597537900103372,1.1471636926931394,9.609965291220927,30s-3
1.7176761432995418e+18,0.7197944360755812,2.937774092627907,4.705012701290698,30s-3
1.7176761434995418e+18,-0.3581443388345349,2.6643801816046504,8.330027746872094,30s-3
1.7176761436995418e+18,-1.3376160070635297,1.924899134917647,10.599584971741178,30s-3
1.7176761438995418e+18,-1.7736380411930233,0.6487331686825581,10.425472625337209,30s-3
1.7176761440995418e+18,-0.5800647197171511,-1.153507452763256,12.708114103023258,30s-3
1.7176761442995418e+18,-0.5520742615811628,-0.7806722984147674,11.102418821953489,30s-3
1.7176761444995418e+18,-0.1663152499619647,1.5410903933647058,9.291020696329412,30s-3
1.7176761446995418e+18,1.1910135586197674,2.6371687844069767,4.912520538941861,30s-3
1.7176761448995418e+18,0.2238680316018604,1.6810413723593027,8.943814571674418,30s-3
1.7176761450995418e+18,-1.1882312060248836,0.5698813202577907,10.81244213651163,30s-3
1.7176761452995418e+18,-1.2275461669776473,-1.0689442527224706,13.07348209835294,30s-3
1.7176761454995418e+18,-1.2009187299546509,0.0676667949150581,11.28082322,30s-3
1.7176761456995418e+18,-0.5725523786771162,1.6523275084313953,8.678211267465116,30s-3
1.7176761458995418e+18,0.5720253676058824,2.451320105447059,5.430074660941177,30s-3
1.7176761460995418e+18,-0.4007143260009884,1.7534381760697677,9.269071495732558,30s-3
1.7176761462995418e+18,-0.9193447145098838,0.3859678577203488,11.009599574604652,30s-3
1.7176761464995418e+18,-1.062413255755,-0.8886831948960817,12.8978148727907,30s-3
1.7176761466995418e+18,-0.9491342120282354,0.7484186192664116,10.80131398342353,30s-3
1.7176761468995418e+18,-0.6402748214330233,1.7785349737441862,9.365786042290695,30s-3
1.7176761470995418e+18,0.1131304283405,3.110057323441861,5.73826691438372,30s-3
1.7176761472995418e+18,0.0252081039803487,2.4309408581162786,8.165980278023255,30s-3
1.7176761474995418e+18,-0.9083717778146472,0.8512818456108591,10.816233949329414,30s-3
1.7176761476995418e+18,-0.9587984697336048,-0.7001510325930232,12.90026336476744,30s-3
1.7176761478995418e+18,-0.5795082556743022,0.2655476651649069,11.01805796727907,30s-3
1.7176761480995418e+18,-0.2053323346483882,1.5596136520776471,9.330094056905883,30s-3
1.7176761482995418e+18,-0.1342206558482326,2.5822451585697674,7.419697839116279,30s-3
1.7176761484995418e+18,0.013466581943,2.810509324034884,7.103678320697673,30s-3
1.7176761486995418e+18,-0.713951500475314,1.9669558571976749,10.026093849069769,30s-3
1.7176761488995418e+18,-1.0331363656894117,1.5902417638917643,10.072375813188234,30s-3
1.7176761490995418e+18,-0.4797887632705813,-0.8896291989862791,10.878383852662791,30s-3
1.7176761492995418e+18,-0.3853557404995348,-1.0758798364216278,10.417904632081394,30s-3
1.7176761494995418e+18,-0.3976537348979651,-0.3390017580651977,10.040116875569767,30s-3
1.7176761496995418e+18,0.2823530723751176,-0.3868490450076588,9.774370900141175,30s-3
1.7176761498995418e+18,-0.264434727059186,-1.2984679923930234,9.818140817325585,30s-3
1.7176761500995418e+18,0.6913588015976744,-1.0014797470081394,10.022309802523257,30s-3
1.7176761502995418e+18,0.7338174907174417,-1.3344716277790694,9.78185899861628,30s-3
1.7176761504995418e+18,0.5830041994023529,-1.0987278510400005,9.729385768694115,30s-3
1.7176761506995418e+18,0.416406787117,-1.068478783160465,9.817640005081396,30s-3
1.7176761508995418e+18,0.041957866759593,-0.8848435573802326,9.807178419697676,30s-3
1.7176761510995418e+18,0.2120322374741176,-0.906288613292941,9.806969485517648,30s-3
1.7176761512995418e+18,0.2810175430976743,-0.8695962643883723,9.834668015279073,30s-3
1.7176761514995418e+18,0.1583714703454651,-0.9092726042186045,9.845686114127908,30s-3
1.7176761516995418e+18,0.1598182936531395,-0.8774981436360464,9.829103336755814,30s-3
1.7176761518995418e+18,0.2158607528482352,-0.9190691001329409,9.852517531870587,30s-3
1.7176761520995418e+18,0.2175799188918604,-0.9288047164186044,9.826487884930232,30s-3
1.7176761522995418e+18,0.1634909981895349,-0.9867332868860464,9.84323767726744,30s-3
1.7176761524995418e+18,0.2816296613574419,-1.0284685533337208,9.836504348476744,30s-3
1.7176761526995418e+18,0.1669345679995293,-1.0510966083341176,9.860737688411763,30s-3
1.7176761528995418e+18,-0.2742842512482558,-0.9517312985686046,9.851807250500002,30s-3
1.7176761530995418e+18,0.0171949343114534,-0.9010924897906978,9.837561651813957,30s-3
1.7176761532995418e+18,0.3470437347894117,-0.994682300755294,9.84823864209412,30s-3
1.7176761534995418e+18,0.0945443180225232,-0.8231866332069766,9.84479574827907,30s-3
1.7176761536995418e+18,0.128099481236186,-0.8029311133023254,9.808013073255816,30s-3
