Timestamps,Acc_X,Acc_Y,Acc_Z
1.7176155590780516e+18,-0.0967844499847619,0.16210575648095238,9.833137599285713
1.7176155592780516e+18,-0.09425898743,0.16188835143500002,9.82847158805
1.7176155594780516e+18,-0.0944386138935,0.16372203826499998,9.835372238199998
1.7176155596780516e+18,-0.06596781922650002,0.12388986971299995,9.83879262505
1.7176155598780516e+18,-0.2547477493145,0.08076454923,9.830761825799998
1.7176155600780516e+18,0.4536017303395001,-0.5340294800249998,9.8768809199
1.7176155602780516e+18,-0.95222982792795,-1.201049903817,9.847878730499998
1.7176155604780516e+18,0.5638100509015,-2.34750833129615,9.8013479918
1.7176155606780516e+18,2.2080059279500004,-1.3733041992000001,9.88758366395
1.7176155608780516e+18,1.5447352065836504,0.03468287658699999,9.817267386600001
1.7176155610780516e+18,-0.7406448211009999,0.2202744369115001,10.161446663100001
1.7176155612780516e+18,4.95962889865,1.8460062102850003,11.9523300022
1.7176155614780516e+18,6.3522429428,6.5821797867,9.464645668149998
1.7176155616780516e+18,11.49343677475,8.17115549485,1.62043279269
1.7176155618780516e+18,10.951316619500002,0.47238766482,3.092778533995
1.7176155620780516e+18,9.076981819250001,5.902495696899999,7.465934509609999
1.7176155622780516e+18,5.818250885,5.19773126215,2.9181591567000003
1.7176155624780516e+18,8.9663094635,3.7752318648950003,2.5574243087850004
1.7176155626780516e+18,9.9332013022,3.49796344768,3.9433472671439995
1.7176155628780516e+18,7.30460000597,4.3289304428,1.005391777052
1.7176155630780516e+18,9.17738552805,4.713795112634999,1.7775984649724996
1.7176155632780516e+18,8.4577869418,2.5249044342399998,3.4171315383199996
1.7176155634780516e+18,9.01795955655,3.1339653854000002,2.3581212615372
1.7176155636780516e+18,9.2987606277,2.6106161956499996,2.7280769347
1.7176155638780516e+18,8.779048873799999,2.310737297,3.165250328
1.7176155640780516e+18,9.12699282075,2.6305247955000004,3.56415579985
1.7176155642780516e+18,8.3452958678,2.3656506042500003,4.19195029445
1.7176155644780516e+18,8.3390089415,1.4223646773999998,4.97823520665
1.7176155646780516e+18,10.219189086749997,1.8980454940000002,5.40502768705
1.7176155648780516e+18,8.290307716800001,1.755504409765,6.1290346069999995
1.7176155650780516e+18,4.368665313750001,-0.3894975357,8.8317617568
1.7176155652780516e+18,-0.9057814179285,-0.6102584609650001,7.19400249475
1.7176155654780516e+18,1.355775650039,1.501677246087,9.802575439600002
1.7176155656780516e+18,-0.683418823245,1.3580359496615,9.7050083313
1.7176155658780516e+18,0.22930815128349993,4.1635917664,8.444472130000001
1.7176155660780516e+18,3.8714442902150004,1.1789932708629998,9.1197329178
1.7176155662780516e+18,-0.30986990798571457,0.9285476467642857,9.543475668904764
1.7176155664780516e+18,2.70673132315,0.7422165526785001,9.143473548900001
1.7176155666780516e+18,1.822826911935,0.8234601058229997,7.6642945174
1.7176155668780516e+18,1.020098693796,-1.2013792189714998,8.896786536849998
1.7176155670780516e+18,0.177747871359,-3.7544924926,12.378658447
1.7176155672780516e+18,0.15472574615949997,-4.2627829971499995,11.3292956087
1.7176155674780516e+18,0.8048313446250001,-2.3205419082,10.506643822700001
1.7176155676780516e+18,0.963336730929,-1.0799966353550001,9.213580260950001
1.7176155678780516e+18,0.9805209961319997,2.6658064270410002,5.83049542225
1.7176155680780516e+18,0.27433451843800005,0.8203615495000001,7.412368400700001
1.7176155682780516e+18,0.48257398224249987,-3.2495175934000002,10.966959090100001
1.7176155684780516e+18,-0.23907534024620997,-4.747392746049999,12.073967055499999
1.7176155686780516e+18,-0.663098579465,-3.4305511320999997,10.43288470475
1.7176155688780516e+18,0.42702449795550007,-2.1916075287399996,10.475531021400002
1.7176155690780516e+18,-0.5465659103055,-0.84697620385,9.28421088405
1.7176155692780516e+18,0.674946441675,2.704688072275,6.097585006650001
1.7176155694780516e+18,-0.2456990661655,0.5932463379025,7.08804533385
1.7176155696780516e+18,0.07259902954999997,-3.1648835907749997,10.783597892449999
1.7176155698780516e+18,0.029817993223999983,-4.564428222550001,12.608752464999998
1.7176155700780516e+18,-0.06661148074349998,-3.5575994338499997,10.800243278999998
1.7176155702780516e+18,0.10889105988500006,-1.9840716018999998,9.565116737850001
1.7176155704780516e+18,0.115275283757,-0.810332405055,9.50366951755
1.7176155706780516e+18,0.7602016524675,2.5616604995,6.00045199575
1.7176155708780516e+18,-0.30761032104850006,0.4780758361750001,7.5538616637499985
1.7176155710780516e+18,-0.287926254253,-3.0600865173000003,10.79149397275
1.7176155712780516e+18,0.16104261016893,-4.057686996349999,12.27078527
1.7176155714780516e+18,0.305110519419,-3.3211810683499996,10.90578131085
1.7176155716780516e+18,1.130329467801895,-2.3643782500499997,9.572444000499999
1.7176155718780516e+18,1.012067894085,-0.7988662490695,10.268713600849999
1.7176155720780516e+18,0.9329199828865,1.6039745177909999,6.71143599675
1.7176155722780516e+18,0.08176746371799996,2.4068449401469993,5.9191111450000005
1.7176155724780516e+18,0.22145697790399987,-2.24072788249,10.1677710116
1.7176155726780516e+18,0.5806275787405,-3.97731163795,12.070322135500003
1.7176155728780516e+18,-0.05011578366249999,-3.9010227813999996,12.126814659
1.7176155730780516e+18,-0.3606974258535,-1.9168164596850001,9.34325559985
1.7176155732780516e+18,0.0798514480625,-1.64491438291,9.920170898550001
1.7176155734780516e+18,0.4014651489085714,-0.40867871963809527,9.141639861619048
1.7176155736780516e+18,0.758809547441,2.521723548845,6.310666900549999
1.7176155738780516e+18,0.06575077050450001,0.893394676228,7.666532363749999
1.7176155740780516e+18,-0.13312566375800008,-2.7856247634,11.1098669135
1.7176155742780516e+18,-0.16203055574950004,-3.3859962844500004,12.1541328512
1.7176155744780516e+18,-0.007559280452000014,-1.060679306035,9.5742028429
1.7176155746780516e+18,-0.6097345505155,-1.10674600981325,9.6937517396
1.7176155748780516e+18,0.54289105223355,-1.9498078537499999,9.687113044650001
1.7176155750780516e+18,-0.12856015778209998,-1.371485481215,9.64201931765
1.7176155752780516e+18,-0.416097221375,-1.88098846435,9.61575643155
1.7176155754780516e+18,-0.3284320220965,-1.57033197775,9.746367324749999
1.7176155756780516e+18,0.44596760559049997,-1.8236951065,9.85151616675
1.7176155758780516e+18,0.09804611206264999,-1.2765978012649999,9.4724145125
1.7176155760780516e+18,-0.430751747135,-1.63371766665,9.74094859315
1.7176155762780516e+18,-0.311981231695,-1.5689548415999999,9.705988792449999
1.7176155764780516e+18,-0.12559632110375,-1.7203275604,9.7021642457
1.7176155766780516e+18,-0.47089826201999996,-1.6909661178,9.740260025
1.7176155768780516e+18,-0.42593177031999996,-1.6692313156,9.693250282300001
1.7176155770780516e+18,-0.049749046319270004,-1.43670485685,9.722192596400001
1.7176155772780516e+18,-0.158617652896,-1.4271397475499998,9.69278624725
1.7176155774780516e+18,-0.1040261764795,-1.138442596485,9.78575791145
1.7176155776780516e+18,0.8328081665535001,-1.0027273177850002,9.7991176303
1.7176155778780516e+18,-0.13360466766,-1.056660163825,9.64847090155
1.7176155780780516e+18,-0.19489471435755,-0.84860032647,9.67176995095
1.7176155782780516e+18,-0.19321820067870002,-1.4116170272750002,9.719468261749999
1.7176155784780516e+18,-0.033852104186,-1.46564717085,9.7828389816
1.7176155786780516e+18,-0.021038749693399993,-1.6229251098500002,9.70871312705
1.7176155788780516e+18,0.0273481292795,-1.5643519134,9.7053675841
1.7176155790780516e+18,0.11027568054599998,-1.6300203553000003,9.646225570699999
1.7176155792780516e+18,-0.35801799773000004,-1.7098568343499996,9.71484288025
1.7176155794780516e+18,-0.204048179634,-1.74707693485,9.681484748950002
1.7176155796780516e+18,-0.13258678436450003,-1.8737285613499997,9.76267591105
1.7176155798780516e+18,-0.12083621979450002,-1.53131561275,9.6857059708
1.7176155800780516e+18,-0.0979413299635,-1.5070435867999998,9.5995825653
1.7176155802780516e+18,-0.26844426727,-1.5477289811499997,9.693377517850001
1.7176155804780516e+18,0.022153930663799996,-1.67768124395,9.73793984995
1.7176155806780516e+18,-0.17971912928142858,-1.6109927804285715,9.689186946333333
1.7176155808780516e+18,-0.08558452605725,-1.6113766250999997,9.67992050175
1.7176155810780516e+18,-0.03671864318885,-1.6344212036999999,9.6854440154
1.7176155812780516e+18,-0.13480217742130002,-1.64899340065,9.685099731400001
1.7176155814780516e+18,-0.21272264099700006,-1.5869025192500001,9.700240745550001
1.7176155816780516e+18,-0.04699477385840001,-1.6042589264,9.663956199600001
1.7176155818780516e+18,-0.11836635589200002,-1.6501235503500002,9.7061459657
1.7176155820780516e+18,-0.21671932983500003,-1.5806006241,9.713450775250001
1.7176155822780516e+18,-0.10455757141094998,-1.5798671494000003,9.648201461850002
1.7176155824780516e+18,-0.1475032653785,-1.6488661652499998,9.702179214449998
1.7176155826780516e+18,-0.15541431427499997,-1.6111820298000001,9.6973442689
1.7176155828780516e+18,-0.1140178985555,-1.67638643645,9.7527066422
1.7176155830780516e+18,-0.16162639618,-1.6124618682999998,9.618608001750001
1.7176155832780516e+18,-0.15834821319,-1.7500033493499998,9.698631591849999
1.7176155834780516e+18,-0.146178520205,-1.6399896239499998,9.672548332200002
1.7176155836780516e+18,-0.13038636017250002,-1.6539406127999996,9.66703230285
1.7176155838780516e+18,-0.16352744292000002,-1.7229396286499998,9.6909076538
1.7176155840780516e+18,-0.11529773712209998,-1.7084198227000003,9.6786107255
1.7176155842780516e+18,-0.26221721649999996,-1.6967515868499998,9.656389434900001
1.7176155844780516e+18,-0.10945987700799997,-1.7271533661000003,9.706093574499999
1.7176155846780516e+18,-0.306644828785,-1.7326544266500001,9.656374466
1.7176155848780516e+18,-0.15298187255499998,-1.7185013579499997,9.59054136655
1.7176155850780516e+18,-0.328521835325,-1.7668208770500002,9.70084698485
1.7176155852780516e+18,-0.31956296540499995,-1.8742824097499997,9.6554913025
1.7176155854780516e+18,-0.22072350312000003,-1.9257528762499998,9.660872611950001
1.7176155856780516e+18,-0.18110089874,-1.90288043985,9.674748756350002
1.7176155858780516e+18,-0.14512321473,-1.8457966461000002,9.65966761775
1.7176155860780516e+18,-0.11721375274700001,-1.7422868958000002,9.6569657364
1.7176155862780516e+18,-0.0854797439555,-1.7082701339499997,9.6826223832
1.7176155864780516e+18,-0.08807684326250001,-1.6506175232499998,9.650117477550001
1.7176155866780516e+18,-0.059710830688,-1.6343239059,9.679950439349998
1.7176155868780516e+18,-0.0504076766975,-1.61781324005,9.6812826691
1.7176155870780516e+18,-0.088323829651,-1.6728687515499998,9.6862298813
1.7176155872780516e+18,-0.086138374329,-1.7329687729499998,9.716062843299998
1.7176155874780516e+18,-0.09769434356449999,-1.7240248718499998,9.756359046850001
1.7176155876780516e+18,-0.04663552094025001,-1.4516437912,9.59243492885
1.7176155878780516e+18,0.12651690673299995,-1.4466292190499999,9.718757240299999
1.7176155880780516e+18,-0.05294703892619047,-1.5625720432857146,9.708881705142856
1.7176155882780516e+18,-0.035588493347,-1.5085704117,9.716100265449999
1.7176155884780516e+18,-0.00011226654004999684,-1.4728995894499999,9.69726194
1.7176155886780516e+18,-0.07048841857749999,-1.55607412715,9.716197563250002
1.7176155888780516e+18,-0.01331481170725,-1.52691476445,9.7111231155
1.7176155890780516e+18,-0.0447195053095,-1.52181037905,9.700173385600001
1.7176155892780516e+18,-0.033126113892709995,-1.53852312485,9.710037872300003
1.7176155894780516e+18,-0.05908962249949999,-1.5324457626500003,9.706063636749999
1.7176155896780516e+18,-0.06510710907549999,-1.5857648849500001,9.70964868165
1.7176155898780516e+18,-0.051844688415000006,-1.5393538970500003,9.678019455000001
1.7176155900780516e+18,-0.067606910705,-1.6217799911,9.7097160416
1.7176155902780516e+18,-0.05739813995475,-1.5156581725,9.707717697150002
1.7176155904780516e+18,-0.054711227412885,-1.5858771515499999,9.706258232150002
1.7176155906780516e+18,-0.06203100586250001,-1.57129747005,9.7016178818
1.7176155908780516e+18,-0.055706657408500004,-1.55119427485,9.65609005735
1.7176155910780516e+18,-0.070847671512,-1.6189209366,9.70721623995
1.7176155912780516e+18,-0.1505718841555,-1.5953898696,9.6501399306
1.7176155914780516e+18,-0.064418540956725,-1.7538802873,9.693624504299999
1.7176155916780516e+18,-0.043237586979350005,-1.8180219039499999,9.65799110415
1.7176155918780516e+18,-0.1233360214295,-1.8328710252,9.6710065384
1.7176155920780516e+18,-0.097903907769,-1.8850300599,9.683251075749999
1.7176155922780516e+18,-0.09187893676399998,-1.8199903106000004,9.658881751900001
1.7176155924780516e+18,-0.08985813904300001,-1.74105196385,9.6733791047
1.7176155926780516e+18,-0.060511665345,-1.717041893,9.68295169825
1.7176155928780516e+18,-0.0544417877205,-1.6456254043999998,9.678984947200002
1.7176155930780516e+18,-0.04911286926564999,-1.5662754135999999,9.6894930953
1.7176155932780516e+18,-0.018374290466055,-1.5307917021999997,9.676477661099998
1.7176155934780516e+18,-0.03316353607124999,-1.5594121856999998,9.6885650253
1.7176155936780516e+18,-0.034944831848699995,-1.56812406935,9.69741162875
1.7176155938780516e+18,-0.046343627930000006,-1.6100219422,9.698085228050001
1.7176155940780516e+18,-0.05938151550250002,-1.6498316575,9.67582651515
1.7176155942780516e+18,-0.0597931594855,-1.676685814,9.683138809199999
1.7176155944780516e+18,-0.070967422483,-1.7239425429999997,9.675437324500002
1.7176155946780516e+18,-0.085008224482,-1.7831219788,9.66888095855
1.7176155948780516e+18,-0.10112221528249998,-1.78984300235,9.671874732949998
1.7176155950780516e+18,-0.09435628509449998,-1.8188377075000002,9.653814788750001
1.7176155952780516e+18,-0.12657250540428572,-1.8417486354285717,9.652270856619047
1.7176155954780516e+18,-0.09740993499900001,-1.8116526488999998,9.6588667831
1.7176155956780516e+18,-0.09761949920499999,-1.82610509495,9.6598098221
1.7176155958780516e+18,-0.10327773285600002,-1.8652337265000003,9.67629803465
1.7176155960780516e+18,-0.13701008605999998,-1.8002164307000001,9.698077743450002
1.7176155962780516e+18,0.008180488586250001,-1.6177309113500002,9.6039385071
1.7176155964780516e+18,-0.0756002883915,-1.7041237565000003,9.681948783900001
1.7176155966780516e+18,-0.06661896515015,-1.6987948379499997,9.669823997499998
1.7176155968780516e+18,-0.0663794631955,-1.7543967131999998,9.67400779715
1.7176155970780516e+18,-0.1030681686515,-1.7851278075500001,9.659345787099998
1.7176155972780516e+18,-0.0857791214025,-1.8030006409500003,9.66576743315
1.7176155974780516e+18,-0.10440788269250001,-1.8255662154999999,9.65923352055
1.7176155976780516e+18,-0.10882369995399999,-1.8687888336,9.6584701081
1.7176155978780516e+18,-0.15603552246,-1.8601592788499999,9.636301208500003
1.7176155980780516e+18,-0.14625336457,-1.8536328506500002,9.66584976205
1.7176155982780516e+18,-0.1318383407615,-1.81345639795,9.6823604279
1.7176155984780516e+18,-0.07625891876100001,-1.8074463959000002,9.67447183235
1.7176155986780516e+18,-0.108531806951,-1.6754733352000002,9.6714331512
1.7176155988780516e+18,-0.060122474673499994,-1.6223188707000002,9.67652256775
1.7176155990780516e+18,-0.06411916351525,-1.5875087585999998,9.670467658949999
1.7176155992780516e+18,-0.0646281051625,-1.5625032578,9.6823529434
1.7176155994780516e+18,-0.0620235214235,-1.6206872635,9.685279357850002
1.7176155996780516e+18,-0.0929342422495,-1.6588728562,9.687809097349998
1.7176155998780516e+18,-0.08473130035,-1.6916397171500002,9.684351287850003
1.7176156000780516e+18,-0.10562784576700002,-1.73893386845,9.69689520265
1.7176156002780516e+18,-0.11445948029349999,-1.74843161765,9.6803920212
1.7176156004780516e+18,-0.09440119171125,-1.5964676285,9.70145322415
1.7176156006780516e+18,-0.09225315856549998,-1.8067952498500002,9.59003990935
1.7176156008780516e+18,-0.12492272186000002,-1.71708679965,9.695443222
1.7176156010780516e+18,-0.10097252655609998,-1.8236576841,9.668491767850002
1.7176156012780516e+18,0.023972648622000003,-1.61996127325,9.731982238750001
1.7176156014780516e+18,-0.0231044540402,-1.67386418155,9.662429374750001
1.7176156016780516e+18,-0.027295738222799997,-1.64195054625,9.711138084300002
1.7176156018780516e+18,0.08809929656475,-1.5081512833,9.713293602
1.7176156020780516e+18,0.159545722962,-1.44885209665,9.722267440849999
1.7176156022780516e+18,0.05981561279970001,-1.3198728104000002,9.68807853695
1.7176156024780516e+18,0.21314248221238097,-1.3158779034761905,9.71901064195238
1.7176156026780516e+18,0.014534774777985,-1.3715453567,9.77790673835
1.7176156028780516e+18,0.07741900634634999,-1.38899906155,9.675564559900002
1.7176156030780516e+18,-0.020454963685700003,-1.4233675919000002,9.72855436695
1.7176156032780516e+18,0.0682430877675,-1.5120806123000001,9.695323470850001
1.7176156034780516e+18,0.03686084747345,-1.502672676,9.721047477599999
1.7176156036780516e+18,0.01548529815675,-1.5580724715999998,9.672780349750001
1.7176156038780516e+18,0.0215701446548,-1.48334037775,9.73904754635
1.7176156040780516e+18,-0.04524341583444999,-1.53324659735,9.73026830295
1.7176156042780516e+18,-0.108427024848,-1.35259476465,9.6747188187
1.7176156044780516e+18,-0.048102470399750005,-1.5054718551499997,9.75160643
1.7176156046780516e+18,0.12555889892945,-1.5738646316,9.69646110535
1.7176156048780516e+18,-0.24542214202,-1.4631922760500002,9.705569663899999
1.7176156050780516e+18,-0.14822177123000002,-1.6300802306000002,9.7302159119
1.7176156052780516e+18,-0.08233628082365,-1.5530055085499999,9.7035338974
1.7176156054780516e+18,-0.08836873626700001,-1.4924115144,9.723689483600001
1.7176156056780516e+18,-0.0952544174183,-1.456995163,9.70561457065
1.7176156058780516e+18,-0.13523627472700003,-1.3733116837000001,9.7156736526
1.7176156060780516e+18,-0.02311193847750001,-1.4262640686,9.77016783135
1.7176156062780516e+18,0.0013172607413000012,-1.3811853103499998,9.672301345849998
1.7176156064780516e+18,-0.19769389341900004,-1.2934153289,9.741450050400001
1.7176156066780516e+18,0.0788036270164,-1.37830380245,9.724565162700001
1.7176156068780516e+18,-0.12740007018549998,-1.3721291428,9.7242208785
1.7176156070780516e+18,-0.11826905822730001,-1.3644351425,9.7456637878
1.7176156072780516e+18,0.05946384429775999,-1.4090798034500003,9.738351493849999
1.7176156074780516e+18,-0.1466949462765,-1.3692401504,9.717163055450001
1.7176156076780516e+18,-0.17696200561449998,-1.3436059571,9.71107072445
1.7176156078780516e+18,-0.038410125732,-1.46013114165,9.72149654385
1.7176156080780516e+18,-0.180449752815,-1.4178740158,9.7084661408
1.7176156082780516e+18,-0.03611988830365,-1.5284790116,9.71746243285
1.7176156084780516e+18,-0.20749102020445004,-1.5499892807500002,9.73981844335
1.7176156086780516e+18,-0.052114128114,-1.5584242401000001,9.76260106665
1.7176156088780516e+18,-0.125057441711,-1.3190420379500003,9.7185401916
1.7176156090780516e+18,-0.0104632415777,-1.2876373443500002,9.66027385715
1.7176156092780516e+18,0.0154778137205,-1.3330229645,9.760093780550001
1.7176156094780516e+18,-0.125663681028,-1.3491743774,9.735230484099999
1.7176156096780516e+18,-0.11755803680290003,-1.35566338345,9.692928451550001
1.7176156098780516e+18,0.27686710902380957,-1.4055984714285716,9.772378234809523
1.7176156100780516e+18,-0.047309120170999995,-1.4300511932000002,9.715666168200002
1.7176156102780516e+18,0.0440009994495,-1.40056251535,9.72161629495
1.7176156104780516e+18,-0.0239352264439,-1.3686039734000002,9.71627989205
1.7176156106780516e+18,0.1072744216919,-1.4022016068,9.724393020650002
1.7176156108780516e+18,-0.035902839661700006,-1.3923670578,9.7234424973
1.7176156110780516e+18,0.06640191650605,-1.41953556055,9.72813523855
1.7176156112780516e+18,-0.049000602726465003,-1.4224694596500003,9.727461639399998
1.7176156114780516e+18,-0.1515298919675,-1.3949716415499998,9.74192156975
1.7176156116780516e+18,-0.037145256043,-1.46602139275,9.685219482349998
1.7176156118780516e+18,0.06964267730444999,-1.47456861875,9.704664047300001
1.7176156120780516e+18,-0.0012274475055000038,-1.4389427033,9.73280552665
1.7176156122780516e+18,-0.00014968871535000762,-1.4619348908,9.7555058213
1.7176156124780516e+18,-0.18666931914999998,-1.3598920897500002,9.671066413850001
1.7176156126780516e+18,-0.13733191681,-1.4168411636500002,9.7247896957
1.7176156128780516e+18,-0.257516990665,-1.4293102340500001,9.725074104349998
1.7176156130780516e+18,-0.0181347885143,-1.38788388065,9.65484764105
1.7176156132780516e+18,-0.0298254775975,-1.567862114,9.7517860564
1.7176156134780516e+18,-0.07053332519399999,-1.6068335724499998,9.70087692255
1.7176156136780516e+18,-0.2900892562715,-1.6429459762,9.708593376200001
1.7176156138780516e+18,-0.10644364929554999,-1.67479225155,9.70259834285
1.7176156140780516e+18,-0.07993377686,-1.5928227081500002,9.719558074850001
1.7176156142780516e+18,-0.0790730667115,-1.5357838211000001,9.690383743249999
1.7176156144780516e+18,-0.11431727600299998,-1.4543980636499998,9.7007646561
1.7176156146780516e+18,-0.10763367462391502,-1.45682302095,9.73243130485
1.7176156148780516e+18,-0.0824186096206,-1.43362126915,9.72709490195
1.7176156150780516e+18,0.025177642827000003,-1.3473182373,9.705060722299999
1.7176156152780516e+18,-0.058663009640249994,-1.31717841335,9.7097160415
1.7176156154780516e+18,-0.07244934081270002,-1.3516442412999998,9.734347320600001
1.7176156156780516e+18,0.008105644229000005,-1.38129009245,9.770744132999999
1.7176156158780516e+18,0.00892893219471,-1.35994448095,9.7167813492
1.7176156160780516e+18,-0.05568420409864,-1.2474309539,9.715681137099999
1.7176156162780516e+18,-0.0262104949955,-1.6013699341000003,10.45310765085
1.7176156164780516e+18,-0.10113718417049997,-0.562088630641,9.01258573175
1.7176156166780516e+18,-0.12522958374485002,-1.6888704757500002,9.6729599759
1.7176156168780516e+18,-0.10160121917500001,-1.6191230164400001,9.771859313599998
1.7176156170780516e+18,-0.28167853219385713,-1.476280059714286,9.648207877
1.7176156172780516e+18,-0.045722419738325006,-1.8443072433999999,10.07524841255
1.7176156174780516e+18,-0.087223617557,-1.1975322189495,9.290819640999999
1.7176156176780516e+18,0.015395484928999994,-1.428883621345,9.682824463
1.7176156178780516e+18,0.018898200986200004,-1.6752113799500001,10.053266624349998
1.7176156180780516e+18,-0.16229999542729998,-1.370407722515,9.3836416171
1.7176156182780516e+18,0.02239343261375,-1.67764382175,9.72889865105
1.7176156184780516e+18,-0.118096916196,-1.68471661375,9.803323883000001
1.7176156186780516e+18,-0.17185013581045,-1.523165062,9.678139205799997
1.7176156188780516e+18,0.013135185242500003,-1.4081068267499999,9.647714973449999
1.7176156190780516e+18,-0.09081614684949998,-1.5890954589999997,9.721825859
1.7176156192780516e+18,-0.15427667999550002,-1.4983167344,9.69814510345
1.7176156194780516e+18,-0.12296928406600001,-1.58042099775,9.735462501499999
1.7176156196780516e+18,-0.093772499084,-1.5714845810500002,9.689021575999998
1.7176156198780516e+18,-0.09064400482060002,-1.5740966492,9.67625312805
1.7176156200780516e+18,-0.1875599670345,-1.5883320464500001,9.69313801565
1.7176156202780516e+18,-0.10541079712250001,-1.6212111740000001,9.71116053785
1.7176156204780516e+18,-0.08700656891200001,-1.6210465163999999,9.6780868149
1.7176156206780516e+18,-0.130798004157,-1.6174390182500002,9.685758361949999
1.7176156208780516e+18,-0.164126197811,-1.60922859205,9.671126289450001
1.7176156210780516e+18,-0.17089961242,-1.67229244985,9.711916465800002
1.7176156212780516e+18,-0.15313904571249998,-1.7081204451999998,9.668214843849999
1.7176156214780516e+18,-0.1774484939625,-1.6601526947,9.71576346585
1.7176156216780516e+18,-0.23308779144499997,-1.6451464004000003,9.70550230405
1.7176156218780516e+18,-0.1871632919365,-1.5801440735,9.692112648049998
1.7176156220780516e+18,-0.08292006683005,-1.4849046247500002,9.701677757199999
1.7176156222780516e+18,-0.162561950687,-1.4366599501999997,9.70886281585
1.7176156224780516e+18,-0.058648040769275,-1.42767862705,9.714139343300001
1.7176156226780516e+18,0.017453704833655,-1.3566962357,9.71922127525
1.7176156228780516e+18,-0.0829724578845,-1.4109134902,9.752197700349999
1.7176156230780516e+18,-0.1583033065715,-1.32394434365,9.700787109450001
1.7176156232780516e+18,0.0032033386254499974,-1.3318628769,9.740020523
1.7176156234780516e+18,-0.109849067688,-1.4322141953499998,9.71714060215
1.7176156236780516e+18,-0.006189628598735,-1.3582529983499998,9.725096557650001
1.7176156238780516e+18,-0.1385069732525,-1.4232029342999997,9.7244379273
1.7176156240780516e+18,-0.06616241455149999,-1.4271023253500001,9.7280454254
1.7176156242780516e+18,-0.0708669171995238,-1.4561861311428572,9.70206730442857
1.7176156244780516e+18,-0.0971928863505,-1.4536421355,9.7071114578
1.7176156246780516e+18,-0.14092444610100002,-1.5199617234000002,9.702216636700001
1.7176156248780516e+18,-0.1075214080855,-1.5677498473000002,9.719400901750001
1.7176156250780516e+18,-0.1359472961475,-1.5848592683,9.68554131315
1.7176156252780516e+18,-0.0917666702375,-1.5759078826500001,9.68060158545
1.7176156254780516e+18,-0.21116587830000003,-1.6432004470500001,9.689380828800001
1.7176156256780516e+18,-0.12692106627699998,-1.7184863891499997,9.7233227463
1.7176156258780516e+18,-0.163759460455,-1.6344960480000001,9.69958959965
1.7176156260780516e+18,-0.10502909088600001,-1.55644834895,9.6944328232
1.7176156262780516e+18,-0.16625926208650002,-1.4972090377499998,9.70398296355
1.7176156264780516e+18,-0.10560539245740001,-1.4597644042,9.7173875885
1.7176156266780516e+18,-0.07417824554250001,-1.4498101043999998,9.716362220799999
1.7176156268780516e+18,-0.06392456817520001,-1.35319351955,9.685683517400001
1.7176156270780516e+18,-0.06860982513745,-1.3598920899500002,9.710501907449999
1.7176156272780516e+18,-0.164717468272,-1.3699811095499999,9.706422889650002
1.7176156274780516e+18,-0.0354612579346,-1.47875990295,9.74027499385
1.7176156276780516e+18,-0.14313235473749997,-1.4495930557499999,9.7183231431
1.7176156278780516e+18,-0.12854518889849997,-1.48554828645,9.7781312714
1.7176156280780516e+18,-0.07317533111246502,-1.4526092833999997,9.64320185855
1.7176156282780516e+18,0.047466293330305005,-1.5463293915499998,9.684179145800002
1.7176156284780516e+18,-0.03596271514895,-1.51460286715,9.703975479099999
1.7176156286780516e+18,0.020357666017950006,-1.4934817886,9.7201119233
1.7176156288780516e+18,-0.08098908234150001,-1.5356491011500002,9.675257698200001
1.7176156290780516e+18,-0.10392139435350001,-1.52169811255,9.705749290500002
1.7176156292780516e+18,-0.0073422317515999995,-1.58671540835,9.703571319649999
1.7176156294780516e+18,-0.04028123474107499,-1.4895225220000001,9.687247764549998
1.7176156296780516e+18,-0.10693762206924999,-1.52962413025,9.70086195385
1.7176156298780516e+18,-0.10745404814575002,-1.51867440025,9.7144985962
1.7176156300780516e+18,-0.08759783936255,-1.5351775818499998,9.723607154849999
1.7176156302780516e+18,-0.14367871857099998,-1.44561133575,9.716646629149999
1.7176156304780516e+18,-0.131516510007,-1.45247456355,9.71992481235
1.7176156306780516e+18,-0.1809137878425,-1.3810805282499998,9.731233795249999
1.7176156308780516e+18,-0.027131080623800003,-1.35088831325,9.719520652899998
1.7176156310780516e+18,-0.04929249572779999,-1.28349096675,9.712455345150001
1.7176156312780516e+18,-0.07058571624900001,-1.25162223815,9.7182333298
1.7176156314780516e+18,-0.0475635910047,-1.3644351426,9.725036682250002
1.7176156316780516e+18,-0.09204430716666666,-1.3397568185714286,9.731156812380952
1.7176156318780516e+18,-0.03341800689695,-1.35986215215,9.71388487255
1.7176156320780516e+18,-0.17357155608500002,-1.3568309555,9.721084900000001
1.7176156322780516e+18,-0.121958885193,-1.4186823349,9.723113182099997
1.7176156324780516e+18,-0.0729058914205,-1.46191243745,9.71183413695
1.7176156326780516e+18,-0.07795788574170001,-1.4717170487,9.69656588755
1.7176156328780516e+18,-0.20605400846500005,-1.477989006,9.834197182
1.7176156330780516e+18,-0.1596355361895,-1.59114619445,9.7600339052
1.7176156332780516e+18,0.17820442200700004,-1.11649074557,9.5664190291
1.7176156334780516e+18,-1.041631416315,-1.13508956913,9.73601634975
1.7176156336780516e+18,-0.35834731292,-1.3383069762550002,9.739571456899998
1.7176156338780516e+18,-0.0837732925343,-1.31857051845,9.7227539291
1.7176156340780516e+18,-0.09486522675299999,-1.3550795974499998,9.7197377014
1.7176156342780516e+18,-0.14713652801049998,-1.3018353195,9.7088253938
1.7176156344780516e+18,-0.09322613525315002,-1.4156212005,9.718510254049999
1.7176156346780516e+18,-0.1728380813645,-1.3947471084,9.713009193400001
1.7176156348780516e+18,-0.093039024353,-1.4286890257999998,9.70855595405
1.7176156350780516e+18,-0.13510903930900003,-1.48468009185,9.714910240250001
1.7176156352780516e+18,-0.172418952935,-1.47493535615,9.7130241623
1.7176156354780516e+18,-0.08116122436075,-1.4947765961,9.694844467149998
1.7176156356780516e+18,-0.13775852966295,-1.2947625274799999,9.71892189785
1.7176156358780516e+18,0.021877006524499993,-1.7618212739499999,9.71978260805
1.7176156360780516e+18,-0.39231916811699996,-2.0825742646215,9.7699956893
1.7176156362780516e+18,-0.3578159180080001,-0.920046752995,11.387240112499999
1.7176156364780516e+18,1.4264811172540002,2.14407387542,10.772700553899998
1.7176156366780516e+18,1.336129005455,2.9160934524249997,9.3420356372
1.7176156368780516e+18,1.39833963766,2.04487516025,4.500241699200001
1.7176156370780516e+18,-0.30478868869599995,0.43085652922995,8.368841903699998
1.7176156372780516e+18,-0.5635930022840001,-1.5653548278684,11.100788291
1.7176156374780516e+18,-0.5369933167265,-3.6457361526999996,12.003628326
1.7176156376780516e+18,-0.393733726515,-2.8418253936999998,10.562889358700001
1.7176156378780516e+18,0.522106773385,-1.87807701875,10.093952018899998
1.7176156380780516e+18,1.0072479171425,-0.5731880493515,9.069909026549999
1.7176156382780516e+18,1.1301648101258999,2.825846122715,6.281297973649999
1.7176156384780516e+18,0.19159407805999998,-0.10829978941500003,8.14887432875
1.7176156386780516e+18,0.022356010404999977,-2.2248533935999997,10.699854537650001
1.7176156388780516e+18,0.43334136197149997,-3.0702204437,11.172811019500001
1.7176156390780516e+18,-0.1098715210095239,-3.059908316476191,11.277598113857144
1.7176156392780516e+18,-0.5159395979799999,-2.9822483825000003,9.73611364775
1.7176156394780516e+18,0.311539649957,-1.6638050994650002,10.49201174885
1.7176156396780516e+18,0.21009560395299998,0.7590415649104999,8.063843650699997
1.7176156398780516e+18,0.4107832718349999,2.910075966,5.610617660499999
1.7176156400780516e+18,0.23036345665750005,-0.819635559068,9.341953307949998
1.7176156402780516e+18,0.08433462519049999,-3.1028974914000003,11.096761664999999
1.7176156404780516e+18,0.6579343185875,-3.8058806304500004,11.422125069500002
1.7176156406780516e+18,0.3108061752365,-3.1407013779,10.9308841099
1.7176156408780516e+18,-0.4204307097300998,-2.5656347351000006,9.9145500867
1.7176156410780516e+18,-0.8182584228200002,-0.96298496234,10.16592983995
1.7176156412780516e+18,0.5428910522899999,1.4476321335865,6.735086814950002
1.7176156414780516e+18,-0.04857398986499999,1.53924163052,6.15978815465
1.7176156416780516e+18,-0.15295193481099997,-1.8170189894499997,10.632704177699997
1.7176156418780516e+18,0.20600910183099996,-3.3655937119,10.886329262
1.7176156420780516e+18,-0.51248927308,-3.932839118900001,12.19719829545
1.7176156422780516e+18,-0.31080617519199993,-2.3490800629,9.86785469065
1.7176156424780516e+18,0.004558021558500025,-1.8033598937650002,10.278997215249998
1.7176156426780516e+18,-0.11700418853299996,-1.1753782881985,9.577271461650001
1.7176156428780516e+18,0.3298840027005,1.967328918435,6.66767449955
1.7176156430780516e+18,-0.3885994033815,1.66332609546,6.4993195954
1.7176156432780516e+18,0.15315401463499997,-1.9883601837450002,10.528528312899997
1.7176156434780516e+18,0.12883708193000004,-3.3760719223000004,11.314229438999998
1.7176156436780516e+18,-0.2982847137265,-3.9618038864499994,11.557960099299999
1.7176156438780516e+18,0.075285942128,-2.3970029067499996,10.207154114049999
1.7176156440780516e+18,-0.12329111483499997,-1.669478301925,10.08181974835
1.7176156442780516e+18,0.46372817233450003,-0.7317084044849999,9.48901499185
1.7176156444780516e+18,0.8053253173715001,1.3901366958639652,7.130878761300001
1.7176156446780516e+18,-0.02259551236099997,2.2180874633395002,6.46894775395
1.7176156448780516e+18,0.556041206335,-1.1187061385505,11.11247898115
1.7176156450780516e+18,0.724238937389,-2.65137643435,9.988818146149999
1.7176156452780516e+18,0.15166461178250001,-0.8396190033150001,11.185549529349998
1.7176156454780516e+18,-0.09299411774600003,-2.7962302093424998,9.705487334799999
1.7176156456780516e+18,-0.348684906016,-0.8011415175875001,10.013449426
1.7176156458780516e+18,0.96860577396,-2.4517515564,9.55748261265
1.7176156460780516e+18,0.86437751773,-1.8867514802500005,9.636069191050002
1.7176156462780516e+18,0.07629634094789998,-1.79975988005,9.643845519950002
1.7176156464780516e+18,0.20040468488380953,-2.167713644952381,9.603422437428572
1.7176156466780516e+18,-0.499234336865,-1.5881524201,9.71593560805
1.7176156468780516e+18,-1.087653213505,-1.8239495772650003,9.63573987575
1.7176156470780516e+18,-0.1471514968875,-1.53199669655,9.77885726195
1.7176156472780516e+18,0.16251704406674997,-1.4879956969500001,9.57168807215
1.7176156474780516e+18,-0.2631452865575,-1.3993500367,9.7435980835
1.7176156476780516e+18,-0.1451157302885,-1.2153526611849998,9.6646073457
1.7176156478780516e+18,-0.17843643951799998,-1.41390726465,9.708129341300001
1.7176156480780516e+18,-0.29335995484,-1.4122831420500002,9.6865816497
1.7176156482780516e+18,-0.30203441620000004,-1.57908876795,9.68453839885
1.7176156484780516e+18,-0.24618555449500001,-1.7661996689500001,9.678124237000002
1.7176156486780516e+18,-0.292012756348,-1.8101183395999996,9.6654156647
1.7176156488780516e+18,-0.4657639389049999,-1.8850150909499999,9.650229743900002
1.7176156490780516e+18,-0.35536850738000003,-1.9433562697499998,9.632042564450002
1.7176156492780516e+18,-0.32303574371499993,-1.9534003829500002,9.611048721249999
1.7176156494780516e+18,-0.53092343904,-1.9922745437499998,9.656711265549998
1.7176156496780516e+18,-0.421890174865,-1.9802695083999997,9.741756912349999
1.7176156498780516e+18,-0.138694084166,-1.6012277299000002,9.49588570395
1.7176156500780516e+18,-0.44090064239500004,-1.6749868470000002,9.697696037250001
1.7176156502780516e+18,-0.23542293549999999,-1.6519946593000001,9.696318901150002
1.7176156504780516e+18,-0.254747749335,-1.5903154221500002,9.67505561835
1.7176156506780516e+18,-0.336290679935,-1.5247068557999999,9.65494493875
1.7176156508780516e+18,-0.21729563142000002,-1.6728462982,9.673925468449998
1.7176156510780516e+18,-0.31244526672999995,-1.597814827,9.67213668825
1.7176156512780516e+18,-0.34929114532499994,-1.7097370834999999,9.671867248549999
1.7176156514780516e+18,-0.31484028624500005,-1.7690437545999997,9.63863635255
1.7176156516780516e+18,-0.317811607355,-1.77524086755,9.6466596679
1.7176156518780516e+18,-0.383914146425,-1.88572611245,9.65935327145
1.7176156520780516e+18,-0.36023339081000005,-1.9099158096,9.59926821905
1.7176156522780516e+18,-0.37669915008,-1.9449953613000002,9.642341148350003
1.7176156524780516e+18,-0.44732977296000004,-2.0078496551000002,9.628135688700002
1.7176156526780516e+18,-0.367934875495,-1.9838320998499999,9.57984610745
1.7176156528780516e+18,-0.41872425842,-2.00148040015,9.62038181305
1.7176156530780516e+18,-0.451768043525,-1.9851643294999999,9.60571231845
1.7176156532780516e+18,-0.329854064935,-2.0380194168,9.646861747700001
1.7176156534780516e+18,-0.405888450625,-1.8814899215499998,9.68422405245
1.7176156536780516e+18,-0.4092560904380953,-1.7599188015714284,9.688303070142858
1.7176156538780516e+18,-0.1801803131101,-1.59220149995,9.60965661615
1.7176156540780516e+18,-0.29378656769999995,-1.2525128860499999,9.650761138899998
1.7176156542780516e+18,-0.39258112335500006,-1.652743103,9.70723120885
1.7176156544780516e+18,-0.20921244049549997,-1.4354250182500001,9.742542777950002
1.7176156546780516e+18,-0.36476147461499997,-1.5942597197500001,9.5443474277
1.7176156548780516e+18,-0.420550460815,-1.7315093079500001,9.6947471694
1.7176156550780516e+18,-0.23129152680265003,-1.9211200104500001,9.671934608399999
1.7176156552780516e+18,-0.47181884766,-1.9044222335499998,9.61833107745
1.7176156554780516e+18,-0.4529430999799999,-1.9828740921499999,9.602299415649998
1.7176156556780516e+18,-0.373727828975,-2.01427878565,9.6273124008
1.7176156558780516e+18,-0.50000523376,-2.0355645218000005,9.6106071396
1.7176156560780516e+18,-0.39529048919,-2.041799057,9.619790542650001
1.7176156562780516e+18,-0.40342607117,-1.9665655060000007,9.6719420929
1.7176156564780516e+18,-0.36295024108999996,-1.7310976638500002,9.54481894675
1.7176156566780516e+18,-0.30993798065,-1.8721493452999998,9.648418510499999
1.7176156568780516e+18,-0.32345487214,-1.7520765381,9.663671791150001
1.7176156570780516e+18,-0.402887191755,-1.8323995054500002,9.6165048751
1.7176156572780516e+18,-0.34521212768000004,-1.8545833741,9.621833793700002
1.7176156574780516e+18,-0.393202331535,-1.8966159667,9.6511129073
1.7176156576780516e+18,-0.42949436186999995,-1.93552754975,9.61567410275
1.7176156578780516e+18,-0.42135129547500005,-1.9440373534500002,9.605794647249999
1.7176156580780516e+18,-0.46767247009499996,-2.0578606568500004,9.76660523975
1.7176156582780516e+18,-0.25145459747125004,-1.6595614242,9.569547523550002
1.7176156584780516e+18,-0.24171734618449997,-1.4957869949,9.64050746155
1.7176156586780516e+18,-0.263826370225,-1.7106277313,9.64007336425
1.7176156588780516e+18,-0.32709230805,-1.56429952235,9.724250816349999
1.7176156590780516e+18,-0.25297393798999995,-1.6858093415,9.682899306949999
1.7176156592780516e+18,-0.35485956573000005,-1.4910044402999998,9.637543624849998
1.7176156594780516e+18,-0.34358052063999994,-1.6432004471499997,9.780810699249997
1.7176156596780516e+18,-0.1967134323075,-1.52755094145,9.5699816208
1.7176156598780516e+18,-0.39719902037000004,-1.7707576903500002,9.664794456600001
1.7176156600780516e+18,-0.30077703093499997,-1.82121775815,9.6848901673
1.7176156602780516e+18,-0.37003051756999994,-1.84826650995,9.6458288956
1.7176156604780516e+18,-0.383001045225,-1.8787431335,9.62517933655
1.7176156606780516e+18,-0.3254232788,-1.9105370178,9.6479170532
1.7176156608780516e+18,-0.47290409088,-1.9326759797000002,9.64508793645
1.7176156610780516e+18,-0.3736087908142857,-1.8532390268095238,9.632661634238096
1.7176156612780516e+18,-0.31120285033999995,-1.8255587310999999,9.67169510645
1.7176156614780516e+18,-0.413537544255,-1.7102235717999998,9.6377756424
1.7176156616780516e+18,-0.30997540283999997,-1.6865203629,9.6838947373
1.7176156618780516e+18,-0.30591883851,-1.6255970534499997,9.65878445435
1.7176156620780516e+18,-0.373548202505,-1.54629196935,9.634452552850002
1.7176156622780516e+18,-0.27976073455500006,-1.69723807525,9.679419044649999
1.7176156624780516e+18,-0.361700340265,-1.7232988814999999,9.662159935100002
1.7176156626780516e+18,-0.38794825745500006,-1.7416956253999998,9.648912483250001
1.7176156628780516e+18,-0.341941429145,-1.8156942444,9.651996070950002
1.7176156630780516e+18,-0.38570292664,-1.86982168575,9.6318404846
1.7176156632780516e+18,-0.425198295605,-1.89089037325,9.62565085595
1.7176156634780516e+18,-0.36256853484499996,-1.9525172195500002,9.6457465669
1.7176156636780516e+18,-0.4422927475049999,-1.98276931005,9.68247269435
1.7176156638780516e+18,-0.447733932495,-1.80040354155,9.668147483799999
1.7176156640780516e+18,-0.02847827911559999,-1.37455410015,9.654218948349998
1.7176156642780516e+18,-0.3479439468485,-1.7675693207000003,9.5998819427
1.7176156644780516e+18,-0.18134040069,-1.5592624969,9.7218108903
1.7176156646780516e+18,-0.25739723969,-1.7331708526499998,9.635912017749998
1.7176156648780516e+18,-0.29068801117500004,-1.6568819960499996,9.719752670350001
1.7176156650780516e+18,-0.11603121185500001,-1.7156273345500002,9.6818963928
1.7176156652780516e+18,-0.430070663455,-1.6633186112500002,9.6159435425
1.7176156654780516e+18,-0.07786807251120001,-1.75929901895,9.677143775949997
1.7176156656780516e+18,-0.344755577085,-1.7179325409500001,9.63517105855
1.7176156658780516e+18,-0.27187213897875,-1.73989187625,9.6759238127
1.7176156660780516e+18,-0.18734291839539502,-1.7570312348,9.6667179566
1.7176156662780516e+18,-0.4232747955349999,-1.6777036971999997,9.62872695915
1.7176156664780516e+18,-0.035940261845,-1.77760594935,9.6935646286
1.7176156666780516e+18,-0.35423087310499995,-1.6422349548500002,9.692846122750002
1.7176156668780516e+18,-0.29425808715634993,-1.7049620132,9.6397739868
1.7176156670780516e+18,-0.12335099029425001,-1.7174086302499998,9.708406265299999
1.7176156672780516e+18,-0.43529479981,-1.6659381637,9.7022166365
1.7176156674780516e+18,-0.27648255156999996,-1.47207630155,9.675063102749998
1.7176156676780516e+18,-0.12442126465049996,-1.4403048706,9.714341423050001
1.7176156678780516e+18,-0.32650103759000004,-1.56448663335,9.608563888549998
1.7176156680780516e+18,-0.30620324706999996,-1.5553481369999997,9.71822584535
1.7176156682780516e+18,-0.1579739913905,-1.6167205124500001,9.687457328799997
1.7176156684780516e+18,-0.3583690534285714,-1.6053402492857143,9.66318387709524
1.7176156686780516e+18,-0.23691233826499997,-1.69181185915,9.76132871255
1.7176156688780516e+18,-0.31725775909,-1.51821784965,9.66828968815
1.7176156690780516e+18,-0.31148725891,-1.4757137374,9.6521158218
1.7176156692780516e+18,-0.04539310455349999,-1.56287747945,9.792695983849999
1.7176156694780516e+18,-0.20741617584699998,-1.3439876633000003,9.687023231599998
1.7176156696780516e+18,-0.25981471251499993,-1.2585603103,9.727648750350001
1.7176156698780516e+18,-0.255743179325,-1.21684206385,9.67750302895
1.7176156700780516e+18,-0.20600910186000002,-1.3174179152999999,9.740028007449999
1.7176156702780516e+18,-0.201121765135,-1.3758189697999998,9.725358512900002
1.7176156704780516e+18,-0.28282935332500003,-1.3367876358,9.7112428665
1.7176156706780516e+18,-0.21775966644500003,-1.422012909,9.745282081549998
1.7176156708780516e+18,-0.24088657380000003,-1.4084885329499999,9.69210516355
1.7176156710780516e+18,-0.20429516602,-1.41651933285,9.71881711575
1.7176156712780516e+18,-0.24260799407999997,-1.4771058425999999,9.6974116288
1.7176156714780516e+18,-0.23878344726450002,-1.5089820556500002,9.69958959965
1.7176156716780516e+18,-0.20592677306499999,-1.5346087646000002,9.711699417149998
1.7176156718780516e+18,-0.24965833281,-1.55422547145,9.68301905825
1.7176156720780516e+18,-0.29375662994,-1.5399002610499999,9.678318832399999
1.7176156722780516e+18,-0.26488916014999997,-1.6170198897999999,9.710546814
1.7176156724780516e+18,-0.38316570283,-1.6047154769999998,9.667084693849999
1.7176156726780516e+18,-0.25830285643499995,-1.6338898086,9.685189544650001
1.7176156728780516e+18,-0.45447740936500003,-1.6448844451,9.67682942975
1.7176156730780516e+18,-0.45382626343500004,-1.6024402085000002,9.6508958588
1.7176156732780516e+18,-0.2645448761,-1.7203649826,9.6889766693
1.7176156734780516e+18,-0.44495720672499994,-1.69630252075,9.66408343505
1.7176156736780516e+18,-0.427540924065,-1.7155973969500002,9.738546089149999
1.7176156738780516e+18,-0.325610389715,-1.6740512923000002,9.719730216950001
1.7176156740780516e+18,-0.245205093395,-1.3813125457999997,9.614424202
1.7176156742780516e+18,-0.098914306634,-1.42720710745,9.680616554249998
1.7176156744780516e+18,-0.29301567078499996,-1.54803584305,9.73035063175
1.7176156746780516e+18,-0.29004434966,-1.4684538346499998,9.676821945099999
1.7176156748780516e+18,-0.304564155585,-1.5300806808999998,9.73194481655
1.7176156750780516e+18,-0.27611581421200004,-1.4650559003999999,9.6611570206
1.7176156752780516e+18,-0.35825001525,-1.51393675235,9.721631263799999
1.7176156754780516e+18,-0.19520906067149998,-1.51589019015,9.7077626037
1.7176156756780516e+18,-0.38931042481,-1.49331713105,9.650356979399998
1.7176156758780516e+18,-0.26139927455238093,-1.5726011874761907,9.73554768142857
1.7176156760780516e+18,-0.30270801543000003,-1.538238716,9.6693300246
1.7176156762780516e+18,-0.34093103027000005,-1.55325249485,9.701947196999999
1.7176156764780516e+18,-0.28468549348500005,-1.5692167968499997,9.70429730985
1.7176156766780516e+18,-0.35214271545000003,-1.5739694138000002,9.66647097015
1.7176156768780516e+18,-0.36249369048999996,-1.5926355971999997,9.670085952749996
1.7176156770780516e+18,-0.27262806703,-1.6217276000999998,9.7031596756
1.7176156772780516e+18,-0.399885932925,-1.63069395445,9.633157745350001
1.7176156774780516e+18,-0.3806958389399999,-1.6694259108499998,9.707201271
1.7176156776780516e+18,-0.423716377255,-1.68359394845,9.693519722049999
1.7176156778780516e+18,-0.38172120667,-1.6569792937999999,9.66875372315
1.7176156780780516e+18,-0.41860450744,-1.60946809395,9.692247367950001
1.7176156782780516e+18,-0.40673419190000004,-1.6189583587999998,9.6700784684
1.7176156784780516e+18,-0.38696031188999996,-1.5339351655000002,9.6960719147
1.7176156786780516e+18,-0.33099918365500003,-1.5460225295500003,9.70827154545
1.7176156788780516e+18,-0.36277061462,-1.4833628311,9.667571182250002
1.7176156790780516e+18,-0.27513535308500003,-1.4585070190000002,9.698841156
1.7176156792780516e+18,-0.258609718315,-1.4451023941499999,9.69213510135
1.7176156794780516e+18,-0.41278910064499996,-1.45595482635,9.687681861849999
1.7176156796780516e+18,-0.21485570525269998,-1.68272575385,10.078758614049999
1.7176156798780516e+18,-0.24792942809424998,-0.97885196686,9.336070541000002
1.7176156800780516e+18,-0.4927752685629999,-1.414850303675,9.560977843100002
1.7176156802780516e+18,-0.1399365005457,-1.8373018111400001,9.779920050900001
1.7176156804780516e+18,-0.462223800659,-1.6167354812364998,9.753065895150002
1.7176156806780516e+18,-0.2663935317955,-1.4978751526849998,9.684074363349998
1.7176156808780516e+18,-0.363489120485,-1.75624536895,9.749652992249999
1.7176156810780516e+18,-0.21757255554500002,-1.2904589767999999,9.670999054149998
1.7176156812780516e+18,-0.41879161835499995,-1.77328742975,9.6076732408
1.7176156814780516e+18,-0.351147285455,-1.4312487031,9.67823650355
1.7176156816780516e+18,-0.24679927824999998,-1.74448732,9.72054602045
1.7176156818780516e+18,-0.38072577668,-1.54821546935,9.629490371700001
1.7176156820780516e+18,-0.34154475402,-1.6405734100500002,9.714161796549998
1.7176156822780516e+18,-0.22537133788715003,-1.685577324,9.692157554549999
1.7176156824780516e+18,-0.5115237808149999,-1.5688575437999999,9.64342639155
1.7176156826780516e+18,-0.16752413176849998,-1.6961303787,9.693302673249999
1.7176156828780516e+18,-0.39085970306999995,-1.65733106235,9.67471881865
1.7176156830780516e+18,-0.41153171539000005,-1.6338299332500004,9.65659899905
1.7176156832780516e+18,-0.23835433960476193,-1.695616803857143,9.693513663238095
1.7176156834780516e+18,-0.385343673705,-1.646186737,9.647280876100002
1.7176156836780516e+18,-0.38806800842,-1.6837286682500001,9.668110061650001
1.7176156838780516e+18,-0.196616134642,-1.7286577377,9.6579686509
1.7176156840780516e+18,-0.42468935394,-1.71564978785,9.6966407319
1.7176156842780516e+18,-0.317976264965,-1.6016318892499999,9.693744254999999
1.7176156844780516e+18,-0.28461813353500004,-1.59498571005,9.70085446925
1.7176156846780516e+18,-0.34590818023,-1.5175217971000001,9.683071449250003
1.7176156848780516e+18,-0.213770462045,-1.4723831635,9.707418319750001
1.7176156850780516e+18,-0.259627601625,-1.40181990055,9.6916486129
1.7176156852780516e+18,-0.24301215362999998,-1.440432106,9.6882207412
1.7176156854780516e+18,-0.336111053465,-1.4074481964,9.71534433745
1.7176156856780516e+18,-0.36635565949,-1.3617781677,9.692606620800001
1.7176156858780516e+18,-0.16919316100249998,-1.4975458374500001,9.725642921399999
1.7176156860780516e+18,-0.38311331175999996,-1.4611490250000003,9.679276840300002
1.7176156862780516e+18,-0.31961535644000005,-1.5090643843999998,9.67908224485
1.7176156864780516e+18,-0.27938651275000004,-1.60440861515,9.725201339849999
1.7176156866780516e+18,-0.30593380736500003,-1.6054190139,9.6675861511
1.7176156868780516e+18,-0.35069073487,-1.5722704468999997,9.697359237699999
1.7176156870780516e+18,-0.34498011017,-1.61109221645,9.71380254365
1.7176156872780516e+18,-0.29838201142,-1.5609315262499999,9.68289930735
1.7176156874780516e+18,-0.338333930975,-1.5063849564,9.71200627905
1.7176156876780516e+18,-0.25127497100500007,-1.5152989196999997,9.706475280700001
1.7176156878780516e+18,-0.34059423066,-1.3968202972000001,9.700540122849999
1.7176156880780516e+18,-0.21435424804499997,-1.4051654435,9.689021575950001
1.7176156882780516e+18,-0.26149122619500004,-1.4051055680000002,9.68954548645
1.7176156884780516e+18,-0.35584751128500003,-1.4226715394,9.716242469700001
1.7176156886780516e+18,-0.22279669187999995,-1.5033836975000001,9.70988069905
1.7176156888780516e+18,-0.34648448181,-1.50601073455,9.6808036652
1.7176156890780516e+18,-0.3191064148049999,-1.5305297468999999,9.6859454727
1.7176156892780516e+18,-0.2932925949149999,-1.6411497116,9.6737383575
1.7176156894780516e+18,-0.39054535674,-1.6493227157000003,9.662137481699999
1.7176156896780516e+18,-0.31319371033000004,-1.75615555585,9.691528862100002
1.7176156898780516e+18,-0.36061509704,-1.7206868133999997,9.6313539962
1.7176156900780516e+18,-0.394534561155,-1.7896109848000001,9.667930435250003
1.7176156902780516e+18,-0.330550117495,-1.8326614606999996,9.643740737949999
1.7176156904780516e+18,-0.407856857305,-1.8128576430999999,9.637865455600002
1.7176156906780516e+18,-0.36294525146190476,-1.8476506479047616,9.689457811571428
1.7176156908780516e+18,-0.351184707645,-1.7706753616499995,9.62945294945
1.7176156910780516e+18,-0.34415682220500005,-1.6761319656000002,9.6873525468
1.7176156912780516e+18,-0.30221404267,-1.6370781784500004,9.68370014185
1.7176156914780516e+18,-0.38741686249499996,-1.5190037154999998,9.643561111450001
1.7176156916780516e+18,-0.209107658375,-1.5301480406999999,9.681836517250002
1.7176156918780516e+18,-0.2508184203995,-1.54876931765,9.675542106750001
1.7176156920780516e+18,-0.4419784011800001,-1.49262107845,9.6888344651
1.7176156922780516e+18,-0.19425853729500003,-1.6110173720999998,9.6924195099
1.7176156924780516e+18,-0.36655025482,-1.5575186233500002,9.651210205149999
1.7176156926780516e+18,-0.35136433411,-1.6568894806499999,9.688347976749998
1.7176156928780516e+18,-0.29388386536999994,-1.71929470835,9.66650839235
1.7176156930780516e+18,-0.4102443923850001,-1.688376503,9.63713198085
1.7176156932780516e+18,-0.306061042785,-1.7793273697500003,9.663896324149999
1.7176156934780516e+18,-0.389669677735,-1.79080849465,9.6274396362
1.7176156936780516e+18,-0.38299356078999996,-1.8471213913,9.6497282867
1.7176156938780516e+18,-0.377095825195,-1.8605185318,9.659428115950002
1.7176156940780516e+18,-0.40746766661999995,-1.7985623702999998,9.638374397249999
1.7176156942780516e+18,-0.35062337493999995,-1.7924850082500001,9.675190338100002
1.7176156944780516e+18,-0.3418740692100001,-1.7271383972000003,9.637588531499999
1.7176156946780516e+18,-0.356910301205,-1.6405734100500002,9.6876968307
1.7176156948780516e+18,-0.27169251252,-1.624025322,9.682921760500001
1.7176156950780516e+18,-0.309024879455,-1.5061828765,9.6522505416
1.7176156952780516e+18,-0.21357586669999998,-1.4992148665999998,9.66748885345
1.7176156954780516e+18,-0.291578659065,-1.5739993515,9.677323402350002
1.7176156956780516e+18,-0.316913475025,-1.578677124,9.762443893250001
1.7176156958780516e+18,-0.2726430359321,-1.3027109984540002,9.61973066725
1.7176156960780516e+18,-0.40054456326849996,-1.8581534500499999,9.540148658400001
1.7176156962780516e+18,-0.255196815489,-1.6206124191,9.706677361
1.7176156964780516e+18,-0.15596067810865,-1.4874493331699998,9.7205984112
1.7176156966780516e+18,-0.2133513336245,-1.8351687469499995,9.67445686305
1.7176156968780516e+18,-0.45237428284080006,-1.41309146114,9.75527380345
1.7176156970780516e+18,-0.3340827712972,-1.6333434447,9.687958786
1.7176156972780516e+18,-0.0398920440685,-1.5292798461500001,9.655102111949999
1.7176156974780516e+18,-0.467245857235,-1.6635431441500004,9.87837032375
1.7176156976780516e+18,-0.267403930674,-1.35555111685,9.5867766956
1.7176156978780516e+18,-0.26233696746,-1.506377471925,9.530112029400001
1.7176156980780516e+18,-0.15459851074550002,-1.4990053025,9.679172058150002
1.7176156982780516e+18,-0.3026135689890476,-1.5802780805238097,9.876632864857143
1.7176156984780516e+18,-0.36268828583000007,-1.48920069125,9.5526252137
1.7176156986780516e+18,-0.20573217774,-1.3264291762,9.80526983625
1.7176156988780516e+18,-0.25569078825999997,-1.57325839235,9.687547142
1.7176156990780516e+18,-0.27326424408499994,-1.42199045565,9.664405265900001
1.7176156992780516e+18,-0.16854201508,-1.6018339691499999,9.69149143975
1.7176156994780516e+18,-0.2348765716565,-1.53440668495,9.70535261535
1.7176156996780516e+18,-0.21959335327449997,-1.5579377518000002,9.7816040497
1.7176156998780516e+18,-0.36117642975500003,-1.41145236975,9.693190406849999
1.7176157000780516e+18,-0.1800830154366,-1.101005447405,9.59330312335
1.7176157002780516e+18,0.0898731079065,-1.4086681594,9.805142601000002
1.7176157004780516e+18,-0.433438659665,-1.2641811218499999,9.673401557950001
1.7176157006780516e+18,-0.19312838744435,-1.4126573639499997,9.709491508400001
1.7176157008780516e+18,0.09723779296249999,-1.45409868615,9.70940917975
1.7176157010780516e+18,-0.29881610869936004,-1.4735881576999998,9.68973259725
1.7176157012780516e+18,-0.0552126846345,-1.4593003693,9.7334940948
1.7176157014780516e+18,-0.12901670837675,-1.47944098665,9.681132980400001
1.7176157016780516e+18,-0.17978363801299999,-1.5082186432499998,9.7173426819
1.7176157018780516e+18,-0.02533481597875,-1.60666143035,9.67986062625
1.7176157020780516e+18,-0.27244844056499995,-1.4928980027,9.692711402799999
1.7176157022780516e+18,-0.03378474426064999,-1.5708334350500002,9.69405860145
1.7176157024780516e+18,-0.13625415802,-1.5442112960999999,9.675399902150001
1.7176157026780516e+18,-0.22152433776949998,-1.5342270584,9.710988395800001
1.7176157028780516e+18,-0.012888198850749998,-1.5345638580499998,9.711991310249998
1.7176157030780516e+18,-0.33230147552999995,-1.5347584534,9.6578414154
1.7176157032780516e+18,-0.14510076142410003,-1.6035329360000001,9.69479956055
1.7176157034780516e+18,-0.1388662261965,-1.5305447158,9.67682194525
1.7176157036780516e+18,-0.232504005425,-1.5497273254500001,9.680594101
1.7176157038780516e+18,-0.07325765990628999,-1.6162564772499999,9.696094367899999
1.7176157040780516e+18,-0.2737806701616,-1.5293995971499998,9.6945450897
1.7176157042780516e+18,-0.046493316649,-1.5980243912,9.69188063035
1.7176157044780516e+18,-0.048910789488650006,-1.6274157715000002,9.655221862800001
1.7176157046780516e+18,-0.24788452148299997,-1.6165558548,9.7615981522
1.7176157048780516e+18,-0.06274951171595,-1.58572746275,9.60304785925
1.7176157050780516e+18,-0.08071215820299998,-1.65998055275,9.6881683503
1.7176157052780516e+18,0.229001289367,-1.6916472015500001,9.714618347100002
1.7176157054780516e+18,-0.1506616973903,-1.54160671235,9.6641133728
1.7176157056780516e+18,0.015738699771428572,-1.5117562867142857,9.710200391476192
1.7176157058780516e+18,0.40282731628000007,-1.6026497726,9.62722258755
1.7176157060780516e+18,0.06566095733899997,-1.5331343308499998,9.720388847350002
1.7176157062780516e+18,-0.28374245452499997,-1.5216232681500002,9.694537605299999
1.7176157064780516e+18,0.0340691528345,-1.52142118835,9.690630729550001
1.7176157066780516e+18,-0.026427543638750006,-1.5499892807499998,9.604080711400002
1.7176157068780516e+18,-0.022602996815,-1.2765903167,9.84121758265
1.7176157070780516e+18,-0.35668576810999986,-2.7268719405999997,9.521841728199998
1.7176157072780516e+18,0.060384429926999994,-1.0315873031799998,10.3112177121
1.7176157074780516e+18,0.58850120549,-0.417751281733,10.0578770371
1.7176157076780516e+18,0.8464971999619999,3.07614063275,12.044321204
1.7176157078780516e+18,1.4684762879000002,4.433570343049999,9.08308163405
1.7176157080780516e+18,1.2240196379635002,0.771338493403,7.214449973999999
1.7176157082780516e+18,0.5995931396749999,1.0017543412149998,7.214914009150002
1.7176157084780516e+18,-0.14004128257250004,1.36540811922,8.4316662598
1.7176157086780516e+18,-0.25407415008100004,-0.8590485992389999,10.110088462400002
1.7176157088780516e+18,1.035187316855,-2.2781575470649997,9.963977302850001
1.7176157090780516e+18,0.505925422634,-3.2188463745,11.445955512
1.7176157092780516e+18,-0.5217100982885,-2.8210635681500005,11.2153300996
1.7176157094780516e+18,-0.25280928042300005,-1.6764762496799999,9.5207714539
1.7176157096780516e+18,0.34852773284399996,-0.7822283478215001,10.677895202799998
1.7176157098780516e+18,0.2117272110195,0.8437429274874999,8.1316526414
1.7176157100780516e+18,-0.22662872312049998,2.7340569992,5.880798316900001
1.7176157102780516e+18,-0.17719402311625004,-0.4023483123849999,9.641742393
1.7176157104780516e+18,-0.7457267532249999,-2.332419708255,10.26621379875
1.7176157106780516e+18,-0.5393658828235,-3.0876891174,11.220427001500001
1.7176157108780516e+18,-0.352217559775,-3.3913401717,10.76018657605
1.7176157110780516e+18,-2.0732785949799997,-1.72687644198,10.211906730900001
1.7176157112780516e+18,-0.8803043976430001,-1.7335450744200003,10.249568412200002
1.7176157114780516e+18,0.4105288009304,-0.9222920837699998,9.757332023899998
1.7176157116780516e+18,1.10045908359,2.2433549195194997,6.48297358695
1.7176157118780516e+18,-0.132953521719,1.3332998885260001,7.279601989700001
1.7176157120780516e+18,-0.37090619659400004,-1.56713612368,10.261042053999997
1.7176157122780516e+18,-0.710998970025,-2.7261085281999997,10.4551284487
1.7176157124780516e+18,-0.06890920262500001,-3.818222465499999,11.417559562200001
1.7176157126780516e+18,-0.5145325240765,-3.4182317505499995,10.30784971605
1.7176157128780516e+18,-0.7339687042659498,-1.7459842071500002,9.5818219989
1.7176157130780516e+18,-1.331593437227,-1.386095100385,10.445368743400001
1.7176157132780516e+18,-0.5645189339576191,-0.9551565987533334,9.80243002752381
1.7176157134780516e+18,0.2241364058865,1.5662230224485,7.202654502850001
1.7176157136780516e+18,0.0830847244205,1.6210240631450001,7.1989347382
1.7176157138780516e+18,-0.567552268955,-1.10227031707,9.58586359375
1.7176157140780516e+18,-0.7625218276855001,-2.4812626876499997,10.672925537149998
1.7176157142780516e+18,-0.793230468732,-2.7678567123000004,10.58803706325
1.7176157144780516e+18,-1.1523711319400003,-3.4003888549,10.85096530185
1.7176157146780516e+18,-0.8732241210791001,-2.582452262905,9.64903971835
1.7176157148780516e+18,0.05661227419450001,-1.409483962985,10.584070310749999
1.7176157150780516e+18,-0.17905016334149998,-0.7580611038349999,10.838870452899998
1.7176157152780516e+18,0.7219486999745001,0.2155816955685,8.265421966549999
1.7176157154780516e+18,0.954579940745,3.3552577056999993,5.632801529
1.7176157156780516e+18,-0.248064147944,-0.16402890013849997,8.093182639999998
1.7176157158780516e+18,-0.6452182617394999,-3.3056658325,11.505875907499998
1.7176157160780516e+18,0.29648844913750005,-3.138485984850001,11.032926911199999
1.7176157162780516e+18,0.45478427121899995,-3.05575302885,10.922606322
1.7176157164780516e+18,0.10153385926699998,-2.10576853182,9.558590308949999
1.7176157166780516e+18,-0.4425472182450001,-1.7415534210649999,10.078743645300001
1.7176157168780516e+18,0.29001441193415,-0.20568727109790003,10.876083069849999
1.7176157170780516e+18,0.5688321076199999,0.007072792045000001,8.910774948
1.7176157172780516e+18,0.34137261204,2.78497361746,6.739794525099998
1.7176157174780516e+18,-0.25265959168399993,1.3450354843499999,7.105079910250001
1.7176157176780516e+18,-0.7070846100105,-0.34636473082700003,10.263392166250002
1.7176157178780516e+18,-0.9816960525599999,-1.7715510407,12.59680730465
1.7176157180780516e+18,-0.37341348271749997,-1.2135339432249999,9.83275268675
1.7176157182780516e+18,0.3588637390235,-1.395787445075,9.8573240887
1.7176157184780516e+18,0.29946725462,-1.25173450465,9.7512845995
1.7176157186780516e+18,1.313323928855,-2.263824852,9.57370887
1.7176157188780516e+18,-0.585133209204,-1.50489555345,9.652160728400002
1.7176157190780516e+18,-0.23266117859200003,-1.79501474775,9.646509979250002
1.7176157192780516e+18,0.23793770600155,-1.8473085021,9.67542984005
1.7176157194780516e+18,0.03091072081885,-1.31332392885,9.8130910721
1.7176157196780516e+18,-0.2094519424575,-1.025794349615,9.997559966999999
1.7176157198780516e+18,-0.29428802489399997,-0.28458819580350003,9.574434860250003
1.7176157200780516e+18,-0.8993747405575,0.5197716293400001,9.837542723949998
1.7176157202780516e+18,0.403867652875,-0.17360897827400001,9.964149444750001
1.7176157204780516e+18,0.2438578949465,0.0813333664055,9.4546913681
1.7176157206780516e+18,-0.21301417759199998,-0.5107022748714286,9.811568167809524
1.7176157208780516e+18,-0.7591089248650001,0.19882404328099998,9.8091093522
1.7176157210780516e+18,-0.7563696213529999,-0.30198202513545,9.970122025299998
1.7176157212780516e+18,-1.4220503311225001,-0.1592014389,9.7101950455
1.7176157214780516e+18,-1.4335464249099998,0.13454022221655,9.98558487025
1.7176157216780516e+18,1.9830686875430001,0.23241419221000004,10.5010903704
1.7176157218780516e+18,4.76751091,0.94792627716,6.355835472100001
1.7176157220780516e+18,7.152426452599999,0.6794969786970001,6.52335211955
1.7176157222780516e+18,8.725789627100003,0.40939865118150004,5.4734953079499995
1.7176157224780516e+18,8.968854171950001,1.7579069138055001,6.464307403605
1.7176157226780516e+18,6.7907859877500005,6.557151832929999,4.9877254715950015
1.7176157228780516e+18,9.168359298900002,8.21144421375,4.183732383745
1.7176157230780516e+18,10.860440596800002,0.07967930602499987,1.8577941970440002
1.7176157232780516e+18,16.7379981535,-0.5846766585825,6.0568996122500005
1.7176157234780516e+18,10.2484232939,1.7904866639115002,7.8164531021000005
1.7176157236780516e+18,4.3092538604,5.96427223195,7.851712280150001
1.7176157238780516e+18,1.1295061798435,4.8695088043500006,7.96634390265
1.7176157240780516e+18,2.2922357711849997,2.24658071135,9.3128388519
1.7176157242780516e+18,1.0791583785555001,1.7580116959354999,9.947825889700002
1.7176157244780516e+18,1.5213538284549997,4.029448219400001,9.077730263200001
1.7176157246780516e+18,2.7361676102,5.384834678700001,7.309539733799999
1.7176157248780516e+18,2.0287312316,5.933398933449999,7.7241250991
1.7176157250780516e+18,2.17148188025,5.993708519000001,7.7059603729
1.7176157252780516e+18,1.6845594407,6.1458970414,7.24720935065
1.7176157254780516e+18,0.9583071899100002,6.5929947966,7.5010365143
1.7176157256780516e+18,,,
