Timestamps,Gyro_X,Gyro_Y,Gyro_Z
1.7176155590817956e+18,-0.0001008791233333333,-0.0015071076895595242,-7.239290805380952e-05
1.7176155592817956e+18,0.0008891315140660001,0.00055902112238,-0.00012627335673500004
1.7176155594817956e+18,0.00014595164684850004,0.0009812473203585,9.7705412101e-05
1.7176155596817956e+18,2.5262410084999795e-05,0.005312590804445,0.4570423991940281
1.7176155598817956e+18,0.0015496095931005,0.00818609392652,0.36148702070297
1.7176155600817956e+18,0.011656529686050002,-0.034837813964499996,1.093893326725
1.7176155602817956e+18,0.0171578510193,0.0951148691585,1.6769522459200001
1.7176155604817956e+18,0.004879908042314999,0.065675089066565,6.64630644315
1.7176155606817956e+18,0.016075451142884997,0.0810007768212,5.4561764479
1.7176155608817956e+18,0.005157334311149999,0.010904491894355,1.0480000065130874
1.7176155610817956e+18,0.12833886630014998,-0.211384385068,-0.660226850958
1.7176155612817956e+18,-1.6749835151160002,-2.98064016996,-2.285551516705
1.7176155614817956e+18,-0.688162979856,-0.472062573565,-2.2590018656375
1.7176155616817956e+18,-1.8271568090000003,1.319415874025,-5.189912366850001
1.7176155618817956e+18,1.7255724311249998,-3.242317598950001,-3.025539162795
1.7176155620817956e+18,-0.5643906367776501,-2.4299058079500004,0.34459884426350007
1.7176155622817956e+18,-0.2403057102065,-0.6040494909895,0.5621764566555
1.7176155624817956e+18,-1.16770317862,-0.32946474606435505,0.64290140700005
1.7176155626817956e+18,-0.8111441813095001,-0.8340391278849999,0.15436326344000006
1.7176155628817956e+18,-0.31601683493300003,-0.6302832820099,-0.9194740466699999
1.7176155630817956e+18,-1.35820616031,0.17981801106449996,0.44831698982179996
1.7176155632817956e+18,0.12075715857199998,-0.2385534298145,0.08500185058200002
1.7176155634817956e+18,-0.0826522153795,0.03639900390499999,0.13393894938255
1.7176155636817956e+18,-0.102153881641,0.321917977925,0.11517399020635002
1.7176155638817956e+18,-0.020311836586050003,0.25801622383550005,0.06385633945280002
1.7176155640817956e+18,-0.37205612397999993,0.341152840105,0.08412308296889001
1.7176155642817956e+18,-0.23729105444000004,0.1926139744983,-0.004920850508000001
1.7176155644817956e+18,-0.137359848055,0.057889302339524995,-0.10911636906655
1.7176155646817956e+18,0.004002871493050002,0.584891377371,0.08296142593
1.7176155648817956e+18,0.10930672530700003,1.66215512765,0.821891003845
1.7176155650817956e+18,-0.09939680272100002,1.66712759735,0.8629389002649999
1.7176155652817956e+18,0.24203908451799996,0.3699698727105,-0.15859320759700002
1.7176155654817956e+18,0.390385736525,0.7464604988650001,-0.20296434891799997
1.7176155656817956e+18,0.4824856586750001,0.7450159725504999,0.23336700656900003
1.7176155658817956e+18,-0.22046836140099998,-1.4040023326500002,-0.65736616924
1.7176155660817956e+18,-0.08838857338100001,0.44068056997900007,0.20508107228099998
1.7176155662817956e+18,-0.2821491673738096,-0.5127689281390476,0.06217513343400002
1.7176155664817956e+18,-0.1457106560455,-0.13982216547955,0.12941708038554997
1.7176155666817956e+18,-0.47788658141500007,0.276459158965,0.24864005062155492
1.7176155668817956e+18,-0.8369658291299998,0.583046158405,0.243544889605
1.7176155670817956e+18,-0.3200334539631501,0.0752268854997,0.017582758463500003
1.7176155672817956e+18,0.24070428876449998,-0.141827260147,0.006296620477349991
1.7176155674817956e+18,0.6463708818,-0.09145961649114999,-0.12815238502800003
1.7176155676817956e+18,0.59493153841,-0.09965550229299999,-0.0508682963674
1.7176155678817956e+18,-0.04311151421449999,0.16120893917600002,-0.0020530526524999886
1.7176155680817956e+18,-0.7265001207649999,0.15529020672349997,0.004726555150999999
1.7176155682817956e+18,-0.671253323555,0.1238490715585,0.08555906536550001
1.7176155684817956e+18,-0.0809259800637,0.08740764147999999,0.058582933757
1.7176155686817956e+18,0.34678337322900005,0.09318469679550001,0.17328409501509998
1.7176155688817956e+18,0.6150434181150002,-0.06019875172469998,-0.029376171875649993
1.7176155690817956e+18,0.568477578465,-0.21934734936049996,-0.074080079749
1.7176155692817956e+18,-0.07611854411909999,0.013083991506999995,-0.09971613714175001
1.7176155694817956e+18,-0.6654569462,0.05507192854049999,0.04901555604155001
1.7176155696817956e+18,-0.680128020045,-0.023147217931999996,0.018820834293999996
1.7176155698817956e+18,-0.06225269669579999,0.12365413299285,0.08588804490849998
1.7176155700817956e+18,0.26916319770915004,-0.09590887035449999,-0.09539503641300001
1.7176155702817956e+18,0.570612999795,-0.03235382549100001,0.011048850602
1.7176155704817956e+18,0.58791391105,-0.08152199685400001,-0.016441528385050003
1.7176155706817956e+18,0.0059659428023499965,0.04947273512349999,-0.04884247267800002
1.7176155708817956e+18,-0.6124822378250001,0.05285203065199999,0.07062949150520001
1.7176155710817956e+18,-0.65992079973,0.006929285679499998,0.054419557053000014
1.7176155712817956e+18,-0.13502473840835,-0.0450020855657,-0.008343749529099996
1.7176155714817956e+18,0.31929593449650007,-0.1904632192115,-0.08059460311000001
1.7176155716817956e+18,0.490622979405,-0.191920100993,-0.0856991452166
1.7176155718817956e+18,0.5031492695249999,0.012477817202844996,-0.03759037535475
1.7176155720817956e+18,0.26185939918499995,0.0971296791016,-0.0481349776505
1.7176155722817956e+18,-0.5148833125850001,0.1947112483905,0.07611422245784999
1.7176155724817956e+18,-0.71468921006,0.026496650837949998,0.08335852259359999
1.7176155726817956e+18,-0.33126862626200004,0.09936041574175,0.023496283729950003
1.7176155728817956e+18,0.19850995401465002,0.00041685283529999985,0.0012247936359999995
1.7176155730817956e+18,0.322172892095,0.0189637272137,0.086017895097385
1.7176155732817956e+18,0.5036297455499998,-0.08969832042295,-0.1062746390665
1.7176155734817956e+18,0.4225295186047619,-0.20252659988571428,-0.07411031436728571
1.7176155736817956e+18,-0.021421012589250006,0.15713709248699997,-0.008993782456849996
1.7176155738817956e+18,-0.47832835763,0.056096703063,0.011483080336399994
1.7176155740817956e+18,-0.483263894915,0.1666600173295,0.1423859397755
1.7176155742817956e+18,0.043560439388249994,-0.046628487057499994,0.1023550845418
1.7176155744817956e+18,0.009097039509250013,-0.032317034063999994,0.06708251749949999
1.7176155746817956e+18,-0.06299394756675,0.0036777846495000014,-0.107618814338
1.7176155748817956e+18,0.021681393356549998,0.030019846602800004,-0.015285750440500002
1.7176155750817956e+18,-0.030532895622300004,0.06871846979299999,0.03726622038525
1.7176155752817956e+18,-0.04564001304075001,-0.026115252705699997,0.037649775763
1.7176155754817956e+18,0.030070050418459993,-0.11833303868599998,0.06391902517258
1.7176155756817956e+18,0.071589811043,0.0023469888136500015,-0.0965673662715
1.7176155758817956e+18,0.03187173809359,0.10530137829549999,0.0056433212257
1.7176155760817956e+18,-0.044229887629515005,0.05957127297250001,0.0432320841595
1.7176155762817956e+18,-0.0421544695269,-0.0009159638027855004,-0.018800336927995
1.7176155764817956e+18,-0.0105874360629,0.0301175497874,0.038792851549565
1.7176155766817956e+18,0.03532895038235,0.0183005410472,0.013573486673500001
1.7176155768817956e+18,0.0181972456158,-0.07144309561800001,-0.0157141676869
1.7176155770817956e+18,0.0579228844495,-0.050628715003135004,-0.057320246845
1.7176155772817956e+18,0.09007981959000001,-0.005655830544349996,0.0388560406627
1.7176155774817956e+18,0.093540210001,-0.171452166729865,-0.08372698422170001
1.7176155776817956e+18,0.004356185217705,0.048173723735,-0.020583211629850003
1.7176155778817956e+18,0.019541364791299996,0.10033922241849999,0.02077560246615
1.7176155780817956e+18,-0.0449127668391,0.029321891068850005,0.06308540245500001
1.7176155782817956e+18,-0.1387373562905,-0.013381900201900002,-0.03772298076740001
1.7176155784817956e+18,-0.0558175459495,-0.023099863436000005,-0.037356982193999994
1.7176155786817956e+18,-0.0350376249295,-0.0095607968052,0.00438951145599
1.7176155788817956e+18,-0.029759708769699994,-0.006136938927804999,-0.0009566943357615001
1.7176155790817956e+18,-0.02494277905255,0.06732047525950001,-0.0034250300434699997
1.7176155792817956e+18,-0.0250240642582,0.04124528630735,0.020238610957548
1.7176155794817956e+18,-0.013188645581300002,-0.0302552178035,-0.009716432223004999
1.7176155796817956e+18,0.05092481374700001,-0.014892112277300001,-0.0019027440744150003
1.7176155798817956e+18,0.04868397363449999,-0.0006377245240350002,0.0183313385586
1.7176155800817956e+18,-0.00504741317605,0.024830786418300003,0.02082481097905
1.7176155802817956e+18,-0.020160554849544998,-0.021277072117199997,-0.04062533844245
1.7176155804817956e+18,-0.00872476796505,-0.016957274039004995,0.003104417022039999
1.7176155806817956e+18,0.002940989925771428,0.009985678363285715,-0.0012708471996095237
1.7176155808817956e+18,-0.009031906759405,-0.017860156157499994,-0.013660391513379999
1.7176155810817956e+18,0.011434348742700001,0.01754111064945,-0.0079795231864845
1.7176155812817956e+18,-0.0033226143571094997,0.025377150973750002,0.015728286653400002
1.7176155814817956e+18,-0.001144933039875,-0.015780316189200002,-0.01538545405465
1.7176155816817956e+18,0.00154253346578,-0.00978540311405,-0.010778291733299998
1.7176155818817956e+18,0.012558732187715,0.0211741416244,0.01123106477381
1.7176155820817956e+18,0.004678216861774999,0.00531398793684,0.0062619785031999995
1.7176155822817956e+18,-0.0151605014807,-0.011412812035450002,-0.010798081045599997
1.7176155824817956e+18,-0.004745985300055,0.00720811217353,0.00954850186262
1.7176155826817956e+18,-0.01397687685705,-0.00342508656893,-0.0022799210096050002
1.7176155828817956e+18,-0.004997700811053001,0.00972987236473,-0.0006278154787100001
1.7176155830817956e+18,-0.003492420207065,0.0022983615461755003,0.000861824733125
1.7176155832817956e+18,-0.0024736269847499995,-0.00432821765435,-0.001471707475095
1.7176155834817956e+18,-0.00841659563921,-0.0027630337106199997,-0.00065777705461
1.7176155836817956e+18,-0.0034744000908600004,0.0032504954425399994,-0.0034216022119599996
1.7176155838817956e+18,0.00398455971175,0.003032829886086,0.0019779829366215
1.7176155840817956e+18,-0.005914656439915,0.013744605960549999,-0.0010264689795499997
1.7176155842817956e+18,-0.010199408500925,0.0028946657785500008,0.0005503381169650001
1.7176155844817956e+18,-0.005174408265234999,0.0132823378785,0.009570168540229998
1.7176155846817956e+18,-0.0032877518441399994,-0.00195185267279,-0.0029911037735900004
1.7176155848817956e+18,-0.007397472491145,0.026291480893249997,0.008790338941015
1.7176155850817956e+18,-0.04369583278850001,0.02038460367515,0.020949330519255002
1.7176155852817956e+18,-0.033285322971500005,-0.029433913109999998,-0.009032912063749999
1.7176155854817956e+18,-0.005544455015054999,-0.0198282190476,-0.0002746579235204998
1.7176155856817956e+18,0.022712915298300003,-0.021113536274,-0.007473029068450002
1.7176155858817956e+18,0.038030356541500006,-0.0149843019907,-0.0066193796229
1.7176155860817956e+18,0.0325275287495,-0.015147833712800002,-0.00731322424831
1.7176155862817956e+18,0.030324041750500002,-0.007737121591350001,-0.00537904718981
1.7176155864817956e+18,0.0142967235769,-0.00509719680995,-0.00199151289997
1.7176155866817956e+18,0.0029025569181120006,-0.0048476496444040005,-0.0016389083405560002
1.7176155868817956e+18,-0.00795974147055,0.00485105862607,0.0016259175375350002
1.7176155870817956e+18,-0.014928718832,0.004741052733015,0.0008270349498199998
1.7176155872817956e+18,-0.0060197038347,0.000658263295325,-0.00019827119836350005
1.7176155874817956e+18,0.06619093455399999,-0.0129292425938,0.0029987269523419997
1.7176155876817956e+18,0.043217539683100006,-0.0418179017495,-0.019450491273894997
1.7176155878817956e+18,-0.013414333752010002,0.009953577584379,0.00294597734784
1.7176155880817956e+18,-0.0019078468239190477,0.017798301530666666,0.008039191736795239
1.7176155882817956e+18,0.004738633619945001,-0.0065864942122599995,-0.010128893089295002
1.7176155884817956e+18,-0.006204606764525,0.01119920491940065,-0.0005531089686399998
1.7176155886817956e+18,-0.0062073368026399995,0.0028232482699900004,0.0006621051317849999
1.7176155888817956e+18,-0.00101918886361,-0.0007021107826749998,-0.0017873360337899997
1.7176155890817956e+18,-0.00038108213929999996,0.003147923183845,0.0010940709967050002
1.7176155892817956e+18,-0.0037449341495400003,0.002786141898835,-0.00176869397256
1.7176155894817956e+18,-0.0027333708830800003,0.005172369404715,0.0005299428887600001
1.7176155896817956e+18,-0.002386593189715,-0.00040521317572000004,-0.0010468707712085
1.7176155898817956e+18,-0.009872875161975,0.001811491110163,0.000398462121677
1.7176155900817956e+18,-0.0036396730691129996,-0.00046974619038193493,-0.0011777098523700002
1.7176155902817956e+18,0.0057052563523000005,0.00122719398925,0.00239209935242688
1.7176155904817956e+18,-0.0011045429625,0.00229068220963,-0.0022338144020500003
1.7176155906817956e+18,-0.0015548173044914995,-0.0009339390147649997,-0.0004488306920199999
1.7176155908817956e+18,-0.007973420858903001,0.004005593608789999,3.9551865449999976e-05
1.7176155910817956e+18,-0.009423906966535,0.009833416156500002,0.00032666681076500004
1.7176155912817956e+18,-0.05269093783500001,0.0029117808447499996,0.009516896581299998
1.7176155914817956e+18,-0.0333805128,-0.015083465863849996,-0.001438748062415
1.7176155916817956e+18,-0.028681903146500005,0.008798525395200001,0.006723109452248499
1.7176155918817956e+18,-0.018478822315840006,0.007871905248575001,0.00262648845253
1.7176155920817956e+18,0.012241376599200004,-0.0030138460627250003,-0.006250788536419999
1.7176155922817956e+18,0.028814722038499996,-0.00336252465506,-0.003154429589565
1.7176155924817956e+18,0.026996399135499997,-0.006407481223000002,-0.0036190678307944993
1.7176155926817956e+18,0.03335102126,-0.006424835941399999,-0.005283545114999999
1.7176155928817956e+18,0.032202502805000005,-0.004585226316799999,-0.00253634875108
1.7176155930817956e+18,0.023065972374499998,-0.006507953075660001,-0.004016624001215
1.7176155932817956e+18,0.008280983416165,-0.0026003989769434995,-0.0016193994480549999
1.7176155934817956e+18,-0.01054867812155,0.006846787541899999,0.0048623175680700004
1.7176155936817956e+18,-0.0171088087603,0.0013168669712299997,-0.00032639532583500003
1.7176155938817956e+18,-0.014628652063799999,0.00332698535635,0.00229503765295
1.7176155940817956e+18,-0.019139019772499998,0.0036484602082999993,0.0022360678733599998
1.7176155942817956e+18,-0.024654033779499995,0.004013343967449999,0.003824292845095499
1.7176155944817956e+18,-0.018832200207,0.00502651230185,0.003439327715015
1.7176155946817956e+18,-0.020295318822000002,0.006514131440800002,0.0043377079185999996
1.7176155948817956e+18,-0.015197399226645,0.004663172352295001,0.0025063567591099996
1.7176155950817956e+18,-0.004846065092515001,0.004046770394785,0.0007048354673249999
1.7176155952817956e+18,0.00017492642254619072,-0.0002606025247904761,-0.0021191183532928573
1.7176155954817956e+18,-0.004237213521099999,-0.0010789183608299999,-0.0003123582210350001
1.7176155956817956e+18,0.0005220079563000001,0.0007808292923649999,-0.001718684965535
1.7176155958817956e+18,0.0109320838698,-0.0006265762437000001,-0.0025980516089505
1.7176155960817956e+18,0.054902866484,-0.01980556161115,-0.01221993113885
1.7176155962817956e+18,0.011177584186314999,-0.005162441014285,-0.0020251837674999996
1.7176155964817956e+18,-0.0112410387962,0.0122026612397125,0.004955388247850001
1.7176155966817956e+18,-0.017438899189650005,-0.00113448072811,-0.0012971381482745
1.7176155968817956e+18,-0.01266836300505,0.0077053456799,0.0031129155962695003
1.7176155970817956e+18,-0.01204644877045,0.004125508602020499,0.00195224732167
1.7176155972817956e+18,-0.01644348148275,0.0022685474159500002,0.00061472004755
1.7176155974817956e+18,-0.011311550478839503,0.0032803575857500004,-0.0016581729235449999
1.7176155976817956e+18,-0.000853280342165,0.0174095893739,0.00622400928381
1.7176155978817956e+18,-0.00099630777835,0.004013089858537501,0.00041157394292000004
1.7176155980817956e+18,0.0082450809307,-0.004613062780245,-0.00038690159854000005
1.7176155982817956e+18,0.01879236014775,-0.0132192844059,-0.00929412070217
1.7176155984817956e+18,0.035096365912500004,-0.006179874908600001,-0.002384763047945
1.7176155986817956e+18,0.0443859346205,-0.0037733403006400003,-0.0008539302564900001
1.7176155988817956e+18,0.022608118877999996,-0.0090663284294,0.00013435107247999995
1.7176155990817956e+18,0.009441998571925,-0.0007825979322695001,-0.0023700772202530002
1.7176155992817956e+18,-0.00928326668245,0.0010249080952149999,0.001589145552035
1.7176155994817956e+18,-0.0176883224848,0.0062571893444999995,0.002059311466282
1.7176155996817956e+18,-0.02114616041255,0.004456216731993,5.526643951050004e-05
1.7176155998817956e+18,-0.015500515884749998,0.003977346542685001,0.0014344874594499999
1.7176156000817956e+18,-0.0035427894971215195,0.00364942897575,0.002230182063105
1.7176156002817956e+18,-0.0029976847809000005,0.005495990273997999,0.0032911192775250003
1.7176156004817956e+18,0.00817141188345,-0.006293629231965,-0.001859616057465
1.7176156006817956e+18,-0.0110343942771,0.00175329512555,-0.0007756484205249999
1.7176156008817956e+18,-0.0006954621436700001,-0.0018300371768400002,0.004670358114555001
1.7176156010817956e+18,-0.002960680151609,-0.030925746448249997,0.01417723011715
1.7176156012817956e+18,0.0376003952116,-0.0222383428599,0.0017084953204000003
1.7176156014817956e+18,0.020430982438499997,0.006406156457164999,0.004847309930265
1.7176156016817956e+18,0.024731907435,-0.027578579589065,-0.014161188164410001
1.7176156018817956e+18,0.053750794568000006,-0.026717669470500006,-0.024218576308
1.7176156020817956e+18,0.054100394621000004,-0.01620736704785,0.0053199168995500005
1.7176156022817956e+18,0.015491425508299999,0.0025992615019500005,-0.0016902805565399998
1.7176156024817956e+18,0.0066366525545571405,0.013397243782761905,0.021906068969580954
1.7176156026817956e+18,-0.02207854419287,0.020918826525,8.624095344999996e-05
1.7176156028817956e+18,-0.030634504788999994,0.010770348362965,0.012610772100750001
1.7176156030817956e+18,-0.017934511078950003,-0.00428577630056,-0.01825389328885
1.7176156032817956e+18,-0.014638442377935,0.00231747131378,0.00018238817286150011
1.7176156034817956e+18,-0.01220642640265,0.010282945027399999,0.003368236645575
1.7176156036817956e+18,-0.009634858888184999,-0.00557036910893,0.0045485322652950005
1.7176156038817956e+18,0.0251286616366,0.01570018713805,0.011291028309577998
1.7176156040817956e+18,0.023713104519149996,0.021971220213750003,0.035543072488655
1.7176156042817956e+18,-0.0011780584640199991,0.00274297442395,-0.011350614295205
1.7176156044817956e+18,-0.042806921247,-0.010294900973949998,-0.05687657516570001
1.7176156046817956e+18,0.007756259257254999,0.026565560506284995,0.058540522203099986
1.7176156048817956e+18,-0.02231398504235,0.029413310544169995,0.0034041683772999994
1.7176156050817956e+18,0.002723309584449999,-0.02161818894045,-0.03143812392062001
1.7176156052817956e+18,0.014207964530200002,0.003361474425075,0.0026775050506460006
1.7176156054817956e+18,0.032125590275999996,-0.00606359777217045,-0.0012339405836250012
1.7176156056817956e+18,0.022780716745,0.009966426953905,0.00976626260402
1.7176156058817956e+18,0.006617164315299501,-0.020996200422,-0.015652043925450002
1.7176156060817956e+18,0.023191458877079997,-0.018862301954799997,-0.021759060141749994
1.7176156062817956e+18,0.014205461309800002,0.031330114464,0.03073434783049999
1.7176156064817956e+18,-0.011320763426755,-0.019616529822945,-0.026271789524369992
1.7176156066817956e+18,0.002067968028596499,0.004051912930975001,0.009451838297860001
1.7176156068817956e+18,-0.01008084260465,0.018551537484325004,0.01853911029235
1.7176156070817956e+18,-0.010938361112949999,-0.021087264735349998,-0.0346622231415
1.7176156072817956e+18,0.011902333004149999,0.014006793254629998,0.00930243854475
1.7176156074817956e+18,-0.0018606539176500001,0.02467270195476999,0.028727991599000004
1.7176156076817956e+18,-0.0079721786313,-0.01071524353948,-0.015973150695749998
1.7176156078817956e+18,-0.021311985375000002,0.0089233071082,0.005760099663545
1.7176156080817956e+18,-0.0233489278695,-0.0019669399879324997,-0.01290419308945
1.7176156082817956e+18,-0.02219296656565,-0.0012243005036250004,0.005232389956599999
1.7176156084817956e+18,0.0049033564044,0.0010987535981999998,-0.018688400927900004
1.7176156086817956e+18,0.05054748076950001,-0.00682071850767,0.008515222618050001
1.7176156088817956e+18,0.049704873469,-0.017992632626649997,-0.014684646466565001
1.7176156090817956e+18,-0.0019673961678,-0.019861844089,-0.01683887073315
1.7176156092817956e+18,-0.009326067441399999,0.01652270495015,0.01949316500695
1.7176156094817956e+18,-0.0012028841242800001,-0.0022393526867055006,-0.0025696619179499994
1.7176156096817956e+18,-0.022703682293550003,-0.057086198218,0.004343207558
1.7176156098817956e+18,-0.013410105535290475,-0.002185897419190477,0.0030430158084285724
1.7176156100817956e+18,0.018088826325649995,0.023539493466099997,0.0057553731908
1.7176156102817956e+18,-0.00458154704599,-0.0013811834209,-0.010741879068900001
1.7176156104817956e+18,0.009967493632499996,-0.0037197754720149994,0.004957535152999999
1.7176156106817956e+18,-0.011965715361608,-0.0014886168185,0.0088070539294
1.7176156108817956e+18,-0.0038183749827144496,0.006669733956999999,-0.005087504264827
1.7176156110817956e+18,-0.0016285731519449995,0.0240298967583,0.00249415527774
1.7176156112817956e+18,-0.006194915902664499,0.0289378174585,-0.0048719403349049995
1.7176156114817956e+18,-0.0065108921783,-0.01038817618587,-0.0123361236994
1.7176156116817956e+18,-0.01131694113155,-0.032253457187250006,-0.0216609645859
1.7176156118817956e+18,-0.0030447101568,0.008826664096085,0.018868114381635
1.7176156120817956e+18,-0.0061014777512,-0.0024405896548523,0.0092884719379
1.7176156122817956e+18,0.04145003939000001,0.044422465190500006,-0.014107674604099998
1.7176156124817956e+18,-0.0018942617788800006,0.03156166865914999,0.028213474340849996
1.7176156126817956e+18,-0.01222196633465,-0.00280004432384,0.0144106061664
1.7176156128817956e+18,0.00714944940455,-0.02070159576295,-0.0330061354735
1.7176156130817956e+18,-0.0370815049618,-0.028217312157550002,-0.006956144841100001
1.7176156132817956e+18,-0.046464983653500005,-0.0022979413455584503,0.01467624178725
1.7176156134817956e+18,-0.037601551972149996,0.0740703989715,0.0012157824132800004
1.7176156136817956e+18,-0.002852278587020001,-0.019647877588325,0.0038052120478499992
1.7176156138817956e+18,0.01370064963065,-0.027278724314000004,-0.0022765061814
1.7176156140817956e+18,0.031023417971700003,-0.0072189932632045,-0.009638579241825
1.7176156142817956e+18,0.033446182309999996,0.01020710867648,0.0014821195213365495
1.7176156144817956e+18,0.01974138917815,0.0013912962335499992,0.005157181387799999
1.7176156146817956e+18,0.011122512491400002,-0.0206920363935,-0.0021280703022999985
1.7176156148817956e+18,0.02741394518,-0.0163388776141,-0.025131209986176
1.7176156150817956e+18,0.0229207416997,0.0006504638814999999,-0.0004728872208999998
1.7176156152817956e+18,0.0031439588983499995,0.014519123147354998,0.011480118834849997
1.7176156154817956e+18,-0.013377479138000001,-0.022245960129205,-0.0121701514931
1.7176156156817956e+18,0.0039422459315,-0.0015237494517800002,-0.006647351573899998
1.7176156158817956e+18,0.025460945093550003,0.0023527445090600002,0.0015368144631450003
1.7176156160817956e+18,-0.007684391800665,0.017751753871549997,0.01779258584205
1.7176156162817956e+18,0.20557788885085,-0.012140046198999999,-0.0061046728399
1.7176156164817956e+18,-0.17607531845200003,0.04461699479415,0.020752105390500007
1.7176156166817956e+18,-0.1034430544316,0.012059713992349997,-0.040171551725400004
1.7176156168817956e+18,-0.0690779369826,0.009247736261000002,0.00011071634976999953
1.7176156170817956e+18,-0.031230278513085713,-0.003438924345095238,0.014800018940952382
1.7176156172817956e+18,0.0893737484134,-0.0368453135715,-0.0162527143363
1.7176156174817956e+18,-0.00876452075200002,-0.026110899400250003,-0.003677850042749997
1.7176156176817956e+18,0.050993231671499994,-0.0026668135663499995,-0.009564362732965001
1.7176156178817956e+18,-0.048810136530050015,0.038381383754000006,0.031893686757185
1.7176156180817956e+18,-0.07712158961150001,-0.027245031932249995,-0.013376836552390001
1.7176156182817956e+18,0.015619026732149998,0.0076325672381999995,-0.010233239526500001
1.7176156184817956e+18,0.0215603768583,0.040172915113199995,0.01705219750325
1.7176156186817956e+18,0.043182645366499996,-0.03261374998850001,-0.0014038504464249993
1.7176156188817956e+18,-0.0112757583097,0.0023263214850500003,-0.009349799253995001
1.7176156190817956e+18,-0.006426044745649999,0.025594165686999997,0.012284681957889
1.7176156192817956e+18,-0.019021350610854998,-0.0005082462616235,0.004212644271
1.7176156194817956e+18,-0.009450135904,-0.00971832552465,-0.005895408452400001
1.7176156196817956e+18,0.0038882471329150002,0.0026357240865499997,-0.008890153695075
1.7176156198817956e+18,-0.00261690328549,0.02014386774885,0.017662727827235002
1.7176156200817956e+18,-0.023045138828,-0.018256062851575,0.0046538550006474996
1.7176156202817956e+18,0.004719789331699999,-0.004422466879024999,-0.022318080858999997
1.7176156204817956e+18,0.0004674518774750003,0.012626532302650002,-0.0012624469002769996
1.7176156206817956e+18,-0.001346357894292,0.01882196832495,0.013720636587495
1.7176156208817956e+18,-0.020917563327000004,-0.004837972752238999,0.0081895147217673
1.7176156210817956e+18,-0.015122645511225,0.00304257677052,-0.00453936673165
1.7176156212817956e+18,0.002072363262375,0.007461200235524999,-0.0025342152110499993
1.7176156214817956e+18,0.01420998145205,0.016455089807239996,0.012095553846150003
1.7176156216817956e+18,0.028363656532500003,-0.009160706662238501,-0.0023807178664
1.7176156218817956e+18,0.0331125702695,-0.0211632162784,-0.0238209906031
1.7176156220817956e+18,0.03851215150350001,-0.0006587412066310003,0.0007320227214500006
1.7176156222817956e+18,0.018434948149,-0.02437854616455,-0.008121557941149998
1.7176156224817956e+18,0.012842708989255,-0.026321964408349996,-0.016583781171650002
1.7176156226817956e+18,0.009044017069500001,0.011705644346754997,0.0067204613010349995
1.7176156228817956e+18,0.013580991394845,0.02327725656885,0.019494620175650002
1.7176156230817956e+18,0.01278822045337,-0.020098532031885,-0.0036785650189
1.7176156232817956e+18,-0.027553312229690003,0.0009229897930350001,-0.00433693741486
1.7176156234817956e+18,0.0003041253133900002,0.0022227026527650005,-0.00752066730631
1.7176156236817956e+18,-0.0043770420947745,0.01226073256725,0.010862855849465
1.7176156238817956e+18,-0.0165934250682,-0.006726778111699999,0.0022655901386
1.7176156240817956e+18,-0.01022128783223,0.00054361856336,-0.008912363671899999
1.7176156242817956e+18,-0.00783455476052381,0.00896214022442381,-0.0008970067610952379
1.7176156244817956e+18,-0.013622565055000002,0.015296054806200002,0.012470912730299998
1.7176156246817956e+18,-0.029129894915999995,-0.006726019408065,0.002735997245025
1.7176156248817956e+18,-0.0161926082576,0.004741450824235,-0.006960548236125
1.7176156250817956e+18,-0.00968199903175,0.0033098014415500004,-0.00645079689565
1.7176156252817956e+18,-0.01099448956055,0.018475939565849996,0.013474207360049997
1.7176156254817956e+18,-0.027912337704500002,-0.005969861641884999,-0.00140981963489325
1.7176156256817956e+18,0.0021098560826500004,-0.001977399934844499,-0.0004815009712900001
1.7176156258817956e+18,0.0367935840965,-0.003290300498885,-0.0035462801060899994
1.7176156260817956e+18,0.0366741783915,0.0013365014459394999,-0.001061529097605
1.7176156262817956e+18,0.024277895876500002,-0.0081215763297,-0.002220788365245
1.7176156264817956e+18,0.014787160931349996,-0.02030218401995,-0.00641789601635
1.7176156266817956e+18,0.02359342147715,-0.0056434846975494755,-0.00758295773995
1.7176156268817956e+18,0.01718851469839,0.00196840937705,-0.0031979952238350004
1.7176156270817956e+18,-0.004236776299945,0.023251037275900003,0.01947733301105
1.7176156272817956e+18,-0.025128257135,-0.018828505092088,-0.008348494425215
1.7176156274817956e+18,-0.015584933163599999,0.00157009601009,0.00144724582797
1.7176156276817956e+18,0.001774201710975,0.0121021138222,0.0013005280106900003
1.7176156278817956e+18,-0.018026210373670002,-0.0100113947412,0.0032645992435399998
1.7176156280817956e+18,-0.01635472806015,-0.037625840958,-0.012889637495500001
1.7176156282817956e+18,0.00331198801289,-0.00403773954872,-0.00397839046255
1.7176156284817956e+18,0.00816730219564,0.0015298892656899997,0.0011208223222500002
1.7176156286817956e+18,-0.00430106773191,0.017663887309085,0.014380928269249998
1.7176156288817956e+18,-0.015756155294449996,0.013019485265899997,0.006113711217495
1.7176156290817956e+18,-0.010501111059999998,-0.0102629139958,-0.022677832280599997
1.7176156292817956e+18,0.01022056698575,0.0011693056613410002,-0.0055233970752
1.7176156294817956e+18,0.008871197979534997,0.018309875414399997,0.010264631955049999
1.7176156296817956e+18,0.009976595535599998,0.0007685101589500001,-0.0007515717589449999
1.7176156298817956e+18,-0.006719400541060001,-0.0024398581067226503,0.01239358065635
1.7176156300817956e+18,0.01850749219315,0.017495199525699997,0.0031010221532800004
1.7176156302817956e+18,0.021561047807500004,0.013200440572300002,0.007611067143375
1.7176156304817956e+18,0.014487054756000001,-0.00515215297957,0.014627785526949997
1.7176156306817956e+18,0.026514177490000002,-0.023688719469,-0.031005847174599997
1.7176156308817956e+18,0.028656394081699992,-0.010456112283935,-0.015057790836500001
1.7176156310817956e+18,0.012640326569045002,0.0026624971508049998,0.005981511055754999
1.7176156312817956e+18,-0.0155927691601,-0.00883668046733,-0.00172093027507
1.7176156314817956e+18,-0.014789272053200003,0.010599065526,0.0021044633465
1.7176156316817956e+18,-0.005825461054902857,0.0024355571755,-0.0055704219045333335
1.7176156318817956e+18,-0.001877218700328,0.019966812991,0.016778169976089996
1.7176156320817956e+18,-0.019951189495950004,0.004941170627724,0.0053680360551500005
1.7176156322817956e+18,-0.02546488903365,-0.012553868698839002,-0.013971994255834999
1.7176156324817956e+18,-0.0056077876186500005,-0.002275278171979999,-0.006683110140194999
1.7176156326817956e+18,-0.004904362774160001,0.024530990095649997,0.017956681485900003
1.7176156328817956e+18,0.004215151093899999,0.0048213324973,0.0173656256293
1.7176156330817956e+18,0.0992200756485,-0.018515587627150002,-0.04337353061245
1.7176156332817956e+18,0.026209133770700006,0.18313687895220002,-0.0507449229265
1.7176156334817956e+18,-0.042305393796499995,0.021002595427700006,-0.0211074491786
1.7176156336817956e+18,-0.0004399260274650001,-0.115646029635,0.02701574071385
1.7176156338817956e+18,-0.005256220186779999,-0.070503259264,-0.006994748115249999
1.7176156340817956e+18,-0.022697477229,0.00041872067105,0.007253540108995001
1.7176156342817956e+18,-0.014569512160954997,-0.012948897597999998,0.00833932714487
1.7176156344817956e+18,-0.0062445123445,0.01197599999175,0.00907268682535
1.7176156346817956e+18,-0.012229175772800001,-0.00472167958278,-0.0013969134684900001
1.7176156348817956e+18,-0.016491240729,-0.00165102568,-4.786858920000003e-05
1.7176156350817956e+18,-0.0177213280925,0.011254303716149999,0.01251833699705
1.7176156352817956e+18,-0.0029619472217700003,0.00195034588138,0.004100775157450001
1.7176156354817956e+18,0.0103366047839,-0.018982225335865,0.0080370570768
1.7176156356817956e+18,-0.060785305357949994,-0.014540454567484998,0.013454534687324998
1.7176156358817956e+18,-0.028112363078949994,-0.05286541338899999,0.0576693649355
1.7176156360817956e+18,0.23801774289199998,0.030625726469499997,-0.0162932080135
1.7176156362817956e+18,1.277658042305,-0.44836129099000005,-0.0968027110006
1.7176156364817956e+18,0.46926128489499996,-0.20056877508250004,-0.2705782957415
1.7176156366817956e+18,-0.177649188907895,-0.1407352391637,-0.16170658314955003
1.7176156368817956e+18,-0.5045471208125,0.339102575745,0.10870398375499998
1.7176156370817956e+18,-0.7285903304800001,0.35051423683849997,0.11279195728699998
1.7176156372817956e+18,-0.7041941568250001,0.210755094137,0.17295855704295002
1.7176156374817956e+18,-0.25503688872455,-0.13278457709,-0.0457255966455
1.7176156376817956e+18,0.24830114869700007,-0.17747197663350003,-0.07888408593049999
1.7176156378817956e+18,0.525463747975,-0.23192776887999997,-0.12226076889215001
1.7176156380817956e+18,0.5151249617300001,-0.13473699264350003,-0.037613859028000005
1.7176156382817956e+18,0.08147313243240002,0.08998315204400001,-0.103566097369
1.7176156384817956e+18,-0.63885696232,0.1609222743755,0.09572553340679998
1.7176156386817956e+18,-0.602447643875,0.0795582017315,0.05786126511995001
1.7176156388817956e+18,-0.19358282038400002,0.08115857415137,-0.01023317965935
1.7176156390817956e+18,-0.03195166374819049,0.00911621953333333,0.062006009192380945
1.7176156392817956e+18,0.4950049890714999,0.0307304428915,-0.03645274992750001
1.7176156394817956e+18,0.5638703495299999,-0.0755506169057,0.100109034126
1.7176156396817956e+18,0.56806382835,-0.2147032307526,-0.16818677997
1.7176156398817956e+18,-0.42182764969299996,0.15687188579854996,0.10219376119750001
1.7176156400817956e+18,-0.61410900503,-0.00656711044172,0.010007461457500009
1.7176156402817956e+18,-0.5157315582,0.012565162894449994,0.011989263535000001
1.7176156404817956e+18,-0.075978026167,0.021246237118800002,-0.019988323307700014
1.7176156406817956e+18,0.122625086079,0.11182515484565,-0.0025664472184499985
1.7176156408817956e+18,0.46519244314,0.1304043188665,0.13820584006500003
1.7176156410817956e+18,0.44421664922500004,-0.18640718885695,-0.12017187813875
1.7176156412817956e+18,0.4571182582375,-0.0046428934949500015,-0.07077230862799998
1.7176156414817956e+18,-0.54092132598,0.053909453480399994,0.0015045796525000002
1.7176156416817956e+18,-0.57826748789,0.0083921995972,0.0571443783858
1.7176156418817956e+18,-0.362644365243,0.0229967991805,0.015145964222800002
1.7176156420817956e+18,0.04567081266335001,0.08327349562085,0.06534379567465
1.7176156422817956e+18,0.22901066494749997,-0.11585241099789997,-0.04545041658105
1.7176156424817956e+18,0.46000255942,-0.0017025888085499996,-0.0005076505006000005
1.7176156426817956e+18,0.5088960409200001,-0.1042968946522,-0.09228731977835
1.7176156428817956e+18,0.23711347486650003,-0.08180809318799998,-0.12414949470849998
1.7176156430817956e+18,-0.546881192925,0.14217919469415002,0.14453074149450001
1.7176156432817956e+18,-0.57031505256,0.0056053879655,0.07260518749705
1.7176156434817956e+18,-0.36225475221750003,0.0714322553015,0.04647690490669
1.7176156436817956e+18,0.018632513242000003,0.0024835396493500007,-0.003340504463800003
1.7176156438817956e+18,0.35558362287499995,-0.11060433061550001,-0.021106077889
1.7176156440817956e+18,0.37519349605499996,-0.14891882511,-0.12094359160099996
1.7176156442817956e+18,0.41764476000499995,-0.10688412049900001,-0.120537911622
1.7176156444817956e+18,0.5451451330535001,0.092506173909,-0.0136271591265
1.7176156446817956e+18,-0.41930635087650003,-0.012528075179499998,0.03728341951374999
1.7176156448817956e+18,-0.50938437135,0.023152353201500005,0.0775791084335
1.7176156450817956e+18,-0.37326386794999994,-0.0019212726474500063,-0.047679504145700005
1.7176156452817956e+18,0.08531627955424999,0.11945467892596,0.033534866575450004
1.7176156454817956e+18,-0.09784002802700001,0.08345890874450002,0.114070746774
1.7176156456817956e+18,-0.1309326194265,-0.17796236537649998,-0.3169972398345
1.7176156458817956e+18,-0.042495384662150006,-0.090337408110285,-0.025132996271765008
1.7176156460817956e+18,0.0089006029656,0.10451945653199998,0.14298367202449996
1.7176156462817956e+18,0.01676922146,0.11606541238250001,0.05934970131930001
1.7176156464817956e+18,0.00044082554235238045,0.1539378386138095,0.06547337867761906
1.7176156466817956e+18,0.08017400585010001,0.096178896354,0.35663156211999997
1.7176156468817956e+18,0.04258368299364999,-0.0710163887157,0.04099890017035
1.7176156470817956e+18,0.08467574356985,-0.14685074264505,-0.18850276665250001
1.7176156472817956e+18,0.051133107207250006,0.024357516969949998,-0.04908065623400001
1.7176156474817956e+18,0.04228566745938,0.004532128665050001,0.061064806324600006
1.7176156476817956e+18,-0.02330347643567,0.02723430821821,-0.009351901152000002
1.7176156478817956e+18,-0.030795384221949995,0.028689584776299997,-0.004057625954484999
1.7176156480817956e+18,-0.0466470587065,0.01575140022573,-0.01290263193252
1.7176156482817956e+18,-0.08791127539899998,0.005346662027355,0.0073086471516000005
1.7176156484817956e+18,-0.053356571868000004,0.00032287766230499997,-0.012346797377850003
1.7176156486817956e+18,-0.0308136590765,0.047230159584500005,0.013654935770230001
1.7176156488817956e+18,-0.04568153154050001,0.0017350934445000004,0.00849267391095
1.7176156490817956e+18,-0.017069361679185,-0.012302120185849998,-0.021139492350150002
1.7176156492817956e+18,0.0064174294819,0.0361930631085,0.03068757199291
1.7176156494817956e+18,-0.0018243463764500006,-0.012685754016674499,-0.0038453298049
1.7176156496817956e+18,0.0992695594205,-0.0445925716305,-0.030806808209150004
1.7176156498817956e+18,0.061196437891750013,-0.007010109274625002,0.007928214455800001
1.7176156500817956e+18,-0.008554035175399998,0.0046338198303,0.0016735825371550009
1.7176156502817956e+18,0.021587455895800002,-0.0269519060613,-0.008357369907536298
1.7176156504817956e+18,0.035115689784300005,0.016169198189499998,0.014743729150115
1.7176156506817956e+18,-0.02628216403327,-0.005762692191225001,-0.007397715136262901
1.7176156508817956e+18,-0.010825399943880001,0.00321423865331,0.0001275326080550006
1.7176156510817956e+18,-0.019684959051329998,0.0165339753741,0.011799104023599998
1.7176156512817956e+18,-0.040052231679450004,0.009627607418135,0.0005192167488999996
1.7176156514817956e+18,-0.011946478614150002,-0.0033771191727150008,-0.008418797410135003
1.7176156516817956e+18,-0.031396472699330005,0.00858716554955,0.001437181982555
1.7176156518817956e+18,-0.039785378519499995,0.013990300893899996,0.0093881538317
1.7176156520817956e+18,-0.010782261227500001,0.0011922928302025002,-0.004013471108105
1.7176156522817956e+18,-0.02481637273455,0.0095442936291,0.005462520022294999
1.7176156524817956e+18,-0.01909109812795,0.010933265131215003,0.00203191370319
1.7176156526817956e+18,0.0142737142855,-0.00867910481045,-0.006564146804999999
1.7176156528817956e+18,-0.0096960083591,0.007660136546800001,0.0081893854762
1.7176156530817956e+18,-0.01682484614958,-0.00269775904272,-0.007092170697150001
1.7176156532817956e+18,0.05312184096595,-0.011277130635919999,-0.0045766874829750006
1.7176156534817956e+18,0.06234936918999999,-0.0003002832616850001,0.0034050191056999995
1.7176156536817956e+18,0.09971456727190477,-0.05673743682333334,-0.0305382167547619
1.7176156538817956e+18,0.10429218551,0.0142860296079,0.0166419162455
1.7176156540817956e+18,-0.03848665426554499,0.016682531951,-0.007516637490249998
1.7176156542817956e+18,-0.01990959441725,-0.011862325423949998,-0.015976462621045
1.7176156544817956e+18,0.0027303579621500004,0.0021637916096999997,0.006173365350515001
1.7176156546817956e+18,-0.08527021692265,0.03877357509895,0.0347347192231
1.7176156548817956e+18,-0.08131014546450001,-0.013762558927115,-0.029637783719399995
1.7176156550817956e+18,-0.027492762962,0.015693788492415,0.011873645688255
1.7176156552817956e+18,-0.040848365241,0.035041691683050005,0.019508026913299996
1.7176156554817956e+18,-0.008769217814694301,-0.019584866985399997,-0.01682451005367
1.7176156556817956e+18,-0.0130296462916,0.010142681858650002,0.008578315839865
1.7176156558817956e+18,-0.013972321554549999,0.00102289825965,0.002216000793199999
1.7176156560817956e+18,0.03408323156225,-0.022091314475499998,-0.00914819508415
1.7176156562817956e+18,0.07102034352700001,-0.009906125603249999,0.0008563771318449997
1.7176156564817956e+18,0.00511591732615,-0.014298051177249999,0.001273529193279499
1.7176156566817956e+18,0.010691334894399999,-0.0051301011900449995,-0.008268304785999998
1.7176156568817956e+18,-0.003746789845535,0.01073304279805,0.009089454962099999
1.7176156570817956e+18,-0.030367258703500006,0.009028655785344999,-0.0035441756012999995
1.7176156572817956e+18,0.0046893023663649985,0.007705754283525,0.0024322402380549998
1.7176156574817956e+18,-0.029574364516000002,0.00946452574485,0.004835369676145
1.7176156576817956e+18,-0.014753158833195001,0.012961845100650002,-0.0007675619826900004
1.7176156578817956e+18,-0.00569075784932,-0.00112092218182,-0.00039428814194499993
1.7176156580817956e+18,0.0850279061145,-0.0291263641785,-0.00238204503475
1.7176156582817956e+18,0.07253871858449999,-0.044725560186949995,-0.023689994588749996
1.7176156584817956e+18,0.03237046063810001,-0.012546339084549996,0.006521274918049998
1.7176156586817956e+18,-0.014071722502674999,0.0248741386917,-0.0037808085908000006
1.7176156588817956e+18,0.00027581559815000023,4.4510793449999665e-05,-0.00317670412624
1.7176156590817956e+18,0.021889042704074997,0.0079811313478,-0.007391249763395
1.7176156592817956e+18,-0.011024469572995,0.003708307389765,0.0018212568250500002
1.7176156594817956e+18,0.0335803467946645,-0.01619629697569,0.0161055490161
1.7176156596817956e+18,-0.0639883787826,0.02296528900685,-0.00981212353795
1.7176156598817956e+18,-0.05998753160150001,0.003665929707175001,0.014269056438899998
1.7176156600817956e+18,-0.0384727040305,0.005810531601500001,-0.0027261278983050003
1.7176156602817956e+18,-0.0163929432627,0.009669383790610001,0.015880200727200002
1.7176156604817956e+18,0.0006128998245000003,-0.003938523941103499,-0.01104623873285
1.7176156606817956e+18,-0.017432512528599998,0.014558439442940002,0.00922110391575
1.7176156608817956e+18,0.010792917013480702,0.010598581843050002,-0.00354396385365
1.7176156610817956e+18,0.031018423138571425,-0.02815590630428572,-0.016373761025238097
1.7176156612817956e+18,0.027640031557500007,0.009380483114800001,0.010327643517100003
1.7176156614817956e+18,0.044161111860999996,-0.0051764934028849996,0.002754089189849999
1.7176156616817956e+18,0.0289742995985,-0.026423941535200002,-0.0119586408834
1.7176156618817956e+18,0.018195353063999997,0.017888357955,0.00907688518145
1.7176156620817956e+18,-0.0101087947608,-0.00274840609105,-0.006454670093089999
1.7176156622817956e+18,-0.039575823956,0.0012935068634500001,0.0013946674005000004
1.7176156624817956e+18,-0.024967971071500002,0.0166004747615,0.006948681102924998
1.7176156626817956e+18,-0.01609698028794,-0.0009052171925864999,-0.00352678002105
1.7176156628817956e+18,-0.036796573549,0.0057042662757999995,-0.0008508555434000002
1.7176156630817956e+18,-0.01455645983745,0.0161833249734,0.006713417017920001
1.7176156632817956e+18,-0.0188342542732,-0.0095558075814,-0.00576373997844
1.7176156634817956e+18,-0.016891884361149998,0.011411948909825002,0.007412321949844999
1.7176156636817956e+18,0.062455476165099985,-0.006287586139022,-0.00830622691975
1.7176156638817956e+18,0.106478895248,-0.07396435365149999,-0.0041255630166999995
1.7176156640817956e+18,0.01089387806744,-0.007499529164150001,-0.0136339496269835
1.7176156642817956e+18,-0.01547917995018,0.0013335986639650007,-0.008674433577700001
1.7176156644817956e+18,-0.017817526961,-0.0035311375684500003,0.002391721785945
1.7176156646817956e+18,0.007348059333349999,0.02173983645625,0.0031445982867500007
1.7176156648817956e+18,-0.0198770979883,-0.032766088005499995,-0.0224544726086
1.7176156650817956e+18,0.00011057045754999992,0.041189317229695,0.02001535574076
1.7176156652817956e+18,-0.00979437598675,-0.023365963751299998,-0.02492145011195
1.7176156654817956e+18,-0.019197737896125,-0.00017721930090000004,0.00674719052304
1.7176156656817956e+18,0.017173290639545,0.027514212578950002,0.021320058446099993
1.7176156658817956e+18,-0.018088942719699998,-0.030105301714300002,-0.023394159766389998
1.7176156660817956e+18,0.00360652800285,0.0341038480395,0.027544141677150004
1.7176156662817956e+18,0.018075138320199996,-0.035150658734,-0.03161163316825
1.7176156664817956e+18,0.00207782279781,-0.00024125886829999937,0.005860331491250001
1.7176156666817956e+18,0.01812529375325,0.04115099022140001,0.030088292366149995
1.7176156668817956e+18,-0.02261549822435,-0.03756655213095,-0.049071068409500006
1.7176156670817956e+18,0.02666229255895,0.03160461944075,0.0134629988338
1.7176156672817956e+18,0.07137659639050001,0.0034196980066999996,0.008362692623840002
1.7176156674817956e+18,0.029843425844499998,-0.03796679577157,-0.027290227928349998
1.7176156676817956e+18,-0.0235462802919,0.0099532173835,-0.0062078752306815
1.7176156678817956e+18,-0.013586983364800001,0.029335546011049995,0.025531706539500005
1.7176156680817956e+18,-0.017849491048299998,-0.02185835235325,-0.019151953002999995
1.7176156682817956e+18,-0.021296404883400004,0.015615460450849999,0.0018421735991909992
1.7176156684817956e+18,0.00849660486537619,-0.003179530590671429,-0.006015708842904762
1.7176156686817956e+18,0.0031149599123000003,0.0023695296372705,-0.0016404242402050003
1.7176156688817956e+18,0.04856298337645,-0.0017667271900499997,-0.0005631942316792999
1.7176156690817956e+18,-0.00044761342568999993,-0.05277893440800001,-0.006315396347235
1.7176156692817956e+18,0.0572691684816,0.0038242513310500006,0.032891679453645004
1.7176156694817956e+18,0.05073157604799999,0.01953383316845,-0.0113353955563
1.7176156696817956e+18,0.024134577810750003,0.011299227517745,0.010135866882034997
1.7176156698817956e+18,-0.0099475415188,-0.00259308818381,-0.00433559565708
1.7176156700817956e+18,-0.028011722582500002,-0.012904407200470003,-0.006578536145399999
1.7176156702817956e+18,-0.010893429624550002,0.018057037378349995,0.011031576717600002
1.7176156704817956e+18,-0.0148631879828,-0.0043479498879,4.587462189999999e-05
1.7176156706817956e+18,-0.01780302134028,0.00367175362215,-0.000589356434625
1.7176156708817956e+18,0.006282808334275,-0.012760266155819999,-0.00449943532273
1.7176156710817956e+18,-0.023157692934000003,-0.00041679001973100014,-0.0058184160069550015
1.7176156712817956e+18,-0.031393112729649994,0.010424544859649998,-0.0012626157023569997
1.7176156714817956e+18,0.002014080450305,-0.0046012382832650005,3.3322098699999776e-05
1.7176156716817956e+18,-0.017238699597,0.0061697412051750005,0.005874847222176001
1.7176156718817956e+18,-0.0027047519112499982,0.019677969653570004,0.0112885733597
1.7176156720817956e+18,-0.0203806201697,-0.0045937657099499995,-0.022576149464149996
1.7176156722817956e+18,-0.015721897804050002,0.026641045511000005,0.020245630899
1.7176156724817956e+18,0.0031236812822500004,0.0020041793523999994,-0.010338124410899999
1.7176156726817956e+18,-0.015519159800000001,0.020256313786500002,0.0074996229967
1.7176156728817956e+18,0.0011631696020789994,0.02939264371515,0.022419658035400004
1.7176156730817956e+18,-0.011557478864699999,-0.032512612710550004,-0.0219977197941
1.7176156732817956e+18,-0.0201656856112,0.010447826887800002,0.011721440753249998
1.7176156734817956e+18,0.0024524938027,0.003005902969950001,0.0241714803498
1.7176156736817956e+18,0.0178648028228665,-0.0272340390835,-0.0243695473419
1.7176156738817956e+18,0.06880360152550001,-0.029228322628500003,0.00876525081445
1.7176156740817956e+18,0.04843447308815001,-0.0271004044,-0.0264905016636
1.7176156742817956e+18,-0.0402786959892,0.00316201939417,0.012364428047650002
1.7176156744817956e+18,0.0029745898615950003,0.027414616803400006,0.0036957232683999994
1.7176156746817956e+18,0.01780399795455,-0.0012905526493099998,-0.0078029059867
1.7176156748817956e+18,-0.0053664657640650005,0.00308931754565,0.003698009299125
1.7176156750817956e+18,-0.005761313478925001,0.01179989343525,0.019816700112049997
1.7176156752817956e+18,-0.008075822989394998,-0.021466844854500004,-0.02648386901441
1.7176156754817956e+18,-0.004485514512715,0.02034377881765,0.006998567006995001
1.7176156756817956e+18,-0.002500953659347,0.0058665619339,0.0003173573290000004
1.7176156758817956e+18,-0.00961215533451238,-0.013238729848347619,-0.007574568579823811
1.7176156760817956e+18,-0.0063413749215,0.014135682093599996,0.00971429855485
1.7176156762817956e+18,0.00067900329078,-0.0053852101899199995,-0.006344103944111501
1.7176156764817956e+18,-0.00432938181945,0.006785929855800001,0.00274951728337
1.7176156766817956e+18,-0.005613475491000002,0.01071585565795,0.0072160897921
1.7176156768817956e+18,-0.015789222094375003,-0.012264703634150002,-0.016876692874969998
1.7176156770817956e+18,-0.016330952110405,0.01192432502255,0.01235848250735
1.7176156772817956e+18,0.0010311662337749998,0.020292795470404,0.0031241537397550005
1.7176156774817956e+18,-0.012080369273949999,0.01378637322854,0.006297258086815
1.7176156776817956e+18,-0.006200929748136,-0.0047866611387999995,-0.0018311915217799999
1.7176156778817956e+18,0.0258427030528,0.00427697378884,0.0027907496318999997
1.7176156780817956e+18,0.006637265143055,0.0018737614154899999,0.0011876438422499997
1.7176156782817956e+18,0.01911061768195,-0.010717923898499999,-0.0050596279296545
1.7176156784817956e+18,0.01717311781745,-0.0194402184795,-0.012582339043335
1.7176156786817956e+18,0.011863112002325,-0.00464672342652,0.0030227648909
1.7176156788817956e+18,0.032889013458500004,-0.00882699959265,0.0005532077394000002
1.7176156790817956e+18,0.005958309594794999,-0.024551051837665,-0.013943703624199999
1.7176156792817956e+18,-0.01063264220755,0.030035691544800003,0.01310988067515
1.7176156794817956e+18,-0.01041496737118,-0.015454226452550002,-0.01860561332434
1.7176156796817956e+18,0.129689716589,-0.023579322710455004,0.0187236830121
1.7176156798817956e+18,-0.11692714462900003,0.05429846417895,0.012230517538375004
1.7176156800817956e+18,-0.0510563191895,-0.0530398978849,-0.0395039672268
1.7176156802817956e+18,0.037709542644999997,0.03722791492485,0.012444373172500005
1.7176156804817956e+18,-0.049761104187000006,0.00548306073169,0.0020372502383500016
1.7176156806817956e+18,-0.0715111949473,-0.00656120029765,0.00026268922420000175
1.7176156808817956e+18,0.10106254089899999,-0.0072911633404999995,0.0012641952131
1.7176156810817956e+18,-0.018892529799649997,0.005939218977445,0.00697972810635
1.7176156812817956e+18,-0.006382979510075002,0.01953564619125,0.00863982140207
1.7176156814817956e+18,-0.022375405102600002,-0.027053085621,-0.02150413162415
1.7176156816817956e+18,-0.006300447811389999,0.00639206905665,0.012764150766520002
1.7176156818817956e+18,0.006035261901030002,0.012632265867700002,0.017401179275899997
1.7176156820817956e+18,-0.017084368517049996,-0.0253441734238,-0.025814776052600002
1.7176156822817956e+18,0.00653926593956,0.0334405378328,0.023197224362499998
1.7176156824817956e+18,0.010325556004,-0.013618780765150001,-0.0185570597886
1.7176156826817956e+18,-0.017325763789399998,-0.010098724102199998,0.0011844211023499997
1.7176156828817956e+18,0.006794831238235,0.0314463492955,0.020338996714850004
1.7176156830817956e+18,-0.00801824295502,-0.029803436644250003,-0.026726158737575
1.7176156832817956e+18,-0.009992978258523808,0.014036752477714288,0.015691477389333335
1.7176156834817956e+18,0.0121025577881,0.01048948820695,0.0066487563877799995
1.7176156836817956e+18,-0.020038507367,-0.045982653554000004,-0.0331624968432
1.7176156838817956e+18,0.00010605936373299999,0.037111282842615,0.0334891621015
1.7176156840817956e+18,0.029580453661789997,0.0026500903358650007,-0.01086556534345
1.7176156842817956e+18,0.021367852671000002,-0.02180344294675,-0.013427206047849999
1.7176156844817956e+18,0.029225591010000003,0.007460669544810001,0.0065953619574125
1.7176156846817956e+18,0.031305438094350005,-0.024971670703099996,-0.01178456002325
1.7176156848817956e+18,0.01670070982025,-0.00974154750877,-0.0019420873374000002
1.7176156850817956e+18,0.023597900662,0.00996559644765,-0.005207822087700001
1.7176156852817956e+18,-0.00677511341033,0.010464770405550002,0.018960441080889998
1.7176156854817956e+18,0.010932916047719999,0.01746172192585,0.006619898561549998
1.7176156856817956e+18,-0.015172991843455,-0.021175618842300004,-0.019942957139650004
1.7176156858817956e+18,-0.0221556227655,0.007805935608099999,0.00988162845625
1.7176156860817956e+18,-0.010377495420399998,0.01701498352875,0.012006487330070002
1.7176156862817956e+18,-0.031143770908900005,-0.0175925519667871,-0.015712296279589998
1.7176156864817956e+18,-0.022609335789000002,0.0053668555098550005,-0.0033860981946549997
1.7176156866817956e+18,0.013615430554300001,0.012066283466495,0.0123116901372
1.7176156868817956e+18,-0.010253606980499999,0.00569738054518,-0.0017035138702004998
1.7176156870817956e+18,0.001155557576935,-0.007315580640175,-0.005660907158844999
1.7176156872817956e+18,0.03347756313135,0.0003884482372039998,0.0018953578221749998
1.7176156874817956e+18,0.0105226638264,-0.016400466532499998,-0.00901137940558
1.7176156876817956e+18,0.0348198014305,0.0029985158,0.00636339655944
1.7176156878817956e+18,0.0172014189710105,-0.014030536646405,-0.007217241940299999
1.7176156880817956e+18,-0.00413881836572,-0.005760679510225001,-0.007666265737405001
1.7176156882817956e+18,0.0010794270958750002,0.028116592996849998,0.01298389309055
1.7176156884817956e+18,-0.025045899255500003,-0.014051464600800001,-0.0097455970713
1.7176156886817956e+18,-0.026080558122499996,0.009619774890949999,0.007915782561995
1.7176156888817956e+18,-0.006867893657300001,0.008980151068945001,0.0106576788007
1.7176156890817956e+18,-0.034917341826,-0.005982999096847999,-0.0108935665568
1.7176156892817956e+18,-0.0202802287998,0.018004771928,0.00872058907754
1.7176156894817956e+18,-0.034569114795049996,-0.0027845195609,-0.0012052031639000003
1.7176156896817956e+18,-0.026351114035999997,0.005936304298093,0.0004272633641099999
1.7176156898817956e+18,-0.0040802935949499995,0.012259958358820003,0.015284455818255004
1.7176156900817956e+18,-0.0260493175575,-0.011909218621550002,-0.01447836280499
1.7176156902817956e+18,-0.006966099270385,0.012381382711395,0.006749161309775001
1.7176156904817956e+18,-0.00107286910085,0.0005214164393500001,0.002720037196099999
1.7176156906817956e+18,0.016409303799390474,-0.0058487576676,-0.00955894875495957
1.7176156908817956e+18,0.050602811761,-0.004953244671875001,0.003077179015944
1.7176156910817956e+18,0.023567271279,-0.017160221954390004,-0.007887782278499999
1.7176156912817956e+18,0.029705631779750004,0.007047908165424999,0.0030669837291599994
1.7176156914817956e+18,0.037200785662,-0.00574226776375,-0.00681236649425
1.7176156916817956e+18,-0.003016072887076,-0.026417152688799996,-0.009448338765311001
1.7176156918817956e+18,0.0026856864341499994,0.0404876741115,0.02942271013685
1.7176156920817956e+18,-0.01742330980475,-0.02136505461565,-0.020706397761700003
1.7176156922817956e+18,-0.022198673524,0.0052420422547499994,0.002322774927955
1.7176156924817956e+18,-0.008742014364,0.02155840913202,0.015957238099900004
1.7176156926817956e+18,-0.035045526363,-0.013142923837050003,-0.013014463475499996
1.7176156928817956e+18,-0.01139961258177,0.01784490656585,0.008050297974844998
1.7176156930817956e+18,-0.021615405888499997,-0.00682890208654,-0.005824607808535001
1.7176156932817956e+18,-0.030372142186500008,0.0083566958315,0.004638709539730001
1.7176156934817956e+18,-0.0030038568310924996,0.011751037935749999,0.005679805818615
1.7176156936817956e+18,-0.016530007542949997,-0.004524537635245,-0.00612475022754
1.7176156938817956e+18,0.0028524071911500007,0.0073383755345700005,0.005259231856085
1.7176156940817956e+18,0.02254808275,-0.00816052217255,-0.0057181459065299995
1.7176156942817956e+18,0.0208317947565,-0.010838871384995001,-0.007535225991249998
1.7176156944817956e+18,0.04561914485,-0.0028037014649,0.013121906821839998
1.7176156946817956e+18,0.022282545734999996,-0.02089697129635,-0.014573706413920001
1.7176156948817956e+18,0.026437584194049995,-0.005525622406179999,0.0023885447884
1.7176156950817956e+18,0.0290743115542,-0.011491036467695,-0.0030540884007
1.7176156952817956e+18,-0.020674425364349998,-0.0005111271344499996,-0.00240062981596
1.7176156954817956e+18,-0.0023513682362350003,0.02074249308161,0.013497322681400003
1.7176156956817956e+18,-0.0006255094903999988,-0.01429754202225,-0.011114962783295
1.7176156958817956e+18,-0.006015622670850006,0.014214061088599999,0.06665341045745
1.7176156960817956e+18,-0.03044012189855,-0.00593021244325,-0.05324343731868
1.7176156962817956e+18,0.0015293756545999993,-0.013640065410099999,0.004533706323904999
1.7176156964817956e+18,-0.0142376120897,-0.0026391800958999994,-0.0183935902136
1.7176156966817956e+18,0.0622609373158,0.03595464676975,-0.0194268526964
1.7176156968817956e+18,-0.0005994548843499991,-0.004385538713300001,0.018870943305550003
1.7176156970817956e+18,-0.049577731623535,-0.043824071756345,-0.0198310227136
1.7176156972817956e+18,0.07782118935099999,0.015764129917100002,-0.0042541378174500025
1.7176156974817956e+18,0.01659717168755,0.03388504113535,0.021089055202999998
1.7176156976817956e+18,-0.035937238858,-0.027386541384499995,-0.006745477975399998
1.7176156978817956e+18,-0.0208706652551,-0.032589492551464996,-0.01591520617955
1.7176156980817956e+18,0.047732940147449984,-0.007917072169685,-0.019392806652649995
1.7176156982817956e+18,-0.02466326344404761,0.08568598669528571,0.05542176988523809
1.7176156984817956e+18,0.036388695682200004,-0.03787966026049999,-0.02724331247731
1.7176156986817956e+18,-0.00449674184488,-0.022978010121850002,-0.0011373983233500004
1.7176156988817956e+18,0.007064521893969999,0.0016679417457000003,0.010255232640450002
1.7176156990817956e+18,-0.037159561273000005,-0.01622850527025,-0.006338348924365
1.7176156992817956e+18,0.00198561984545,-0.0014634405964500002,-0.00542507486515
1.7176156994817956e+18,-0.013636310933850001,0.010068791540650001,-0.014345089873890002
1.7176156996817956e+18,0.04754980646525,0.017706854640750003,0.037515414203189004
1.7176156998817956e+18,0.10525675601699999,-0.0155003439743055,-0.0102099455948
1.7176157000817956e+18,-0.014556756941165,-0.0718758671555,-0.058187080293599994
1.7176157002817956e+18,-0.024290895752815,0.046921426675574994,0.0509698500855
1.7176157004817956e+18,-0.0040658633517,0.020788349909800004,-0.0120842094996
1.7176157006817956e+18,-0.050435466134000004,-0.0725627340375,-0.01999021926885
1.7176157008817956e+18,-0.026961214437600002,0.02398395120425,0.028467175807950003
1.7176157010817956e+18,0.012209948094740002,0.0151543275917,-0.016052936156750002
1.7176157012817956e+18,-0.011198104743765001,-0.025009180932650005,-0.0266057835435
1.7176157014817956e+18,-0.01644780449545,0.0237078975717,0.0027972679585945006
1.7176157016817956e+18,-0.02035566278541275,-0.018386313715,-0.009212397818749999
1.7176157018817956e+18,0.014781938009349998,0.0206098868046,0.012358764539025001
1.7176157020817956e+18,-0.00920459070445,-0.008308450685599999,-0.012285442423795003
1.7176157022817956e+18,-0.0039892100967,-0.007658838586000002,-0.01103741151715
1.7176157024817956e+18,0.012759857241210005,0.0238603586328,0.02465029309915
1.7176157026817956e+18,-0.01540783359765,-0.01938893295025,-0.015367804930484999
1.7176157028817956e+18,0.018976713128796,0.02669463929465,0.0025899282307000004
1.7176157030817956e+18,-0.013650511414454999,0.006494615297051501,0.0070050727457
1.7176157032817956e+18,-0.009009819879665,-0.014949126332689997,-0.015874345413649998
1.7176157034817956e+18,0.010975829243784999,0.015084993641150003,0.01348281854132
1.7176157036817956e+18,-0.0151794879696,-0.018969097021799997,-0.0167250099368
1.7176157038817956e+18,-0.0007705305764349995,0.012760001351985,0.0054970095287945
1.7176157040817956e+18,0.0010658608349500003,-0.012488491018285,-0.0061801028644550005
1.7176157042817956e+18,-0.018379642114799997,-0.031478230875499995,-0.012478499480085
1.7176157044817956e+18,0.0029575116704999996,0.02671550008786,0.02892527957399999
1.7176157046817956e+18,-0.0027888228417370002,-0.022230456466199998,-0.027676124102625
1.7176157048817956e+18,-0.0023107965325939997,-0.007067189249000001,0.0033510027462500002
1.7176157050817956e+18,-0.028487534914500002,-0.0472630283795,-0.0644752511705
1.7176157052817956e+18,0.0282823067614,0.0034549779306000004,0.0031883342418
1.7176157054817956e+18,0.041207952704650004,0.0176203626548,0.02677368317965
1.7176157056817956e+18,-0.004420394532238096,-0.08297497672666666,-0.07126815687952381
1.7176157058817956e+18,-0.012276739114415,0.0102083687318,0.006857514148499999
1.7176157060817956e+18,0.0204573352362,0.106090323254,0.08219558502749999
1.7176157062817956e+18,0.0035290254385999995,0.005245710269800001,-0.0010437746624800013
1.7176157064817956e+18,-0.00563163862897,-0.015662036090835,-0.0133518319348
1.7176157066817956e+18,0.017972364928849998,-0.06521745579934998,0.12525830902149998
1.7176157068817956e+18,-0.0491432488693,0.1156488021895,0.1691147551518
1.7176157070817956e+18,0.038614596787049996,-0.10213564881165,-0.0972339381427
1.7176157072817956e+18,0.5247944004755001,-0.1879934747625,-0.1266129493284
1.7176157074817956e+18,1.172170436345,-0.13841498449104997,-0.010340700909
1.7176157076817956e+18,0.6414394798159999,-0.3000798177909,0.015307871430500001
1.7176157078817956e+18,-0.6059982061800001,-0.12151099331650002,-0.28177499600074996
1.7176157080817956e+18,-0.41319198904599996,0.19572077179140002,0.039289182889349995
1.7176157082817956e+18,-0.07315140757460001,0.35906339828499995,0.1005117319455
1.7176157084817956e+18,-0.4770791202800001,0.11383243478050001,0.12055525445099999
1.7176157086817956e+18,-0.59643640071,-0.17051766654499997,0.05617602136470001
1.7176157088817956e+18,-0.5212343663000001,0.02776282326597,-0.10071522220925
1.7176157090817956e+18,-0.03950246143750001,0.1403777538825,0.03362462746345
1.7176157092817956e+18,0.2597438690105,0.09766358826400001,0.0004463287119000015
1.7176157094817956e+18,0.530661031605,-0.025984824823,0.029753178308500005
1.7176157096817956e+18,0.38534615039,-0.079103682977,-0.08663110509195
1.7176157098817956e+18,0.409560555225,-0.061614656779499996,-0.0995798642412
1.7176157100817956e+18,-0.33890922871350004,0.175559297017,0.14029656331999998
1.7176157102817956e+18,-0.5744526088149999,0.20699649587499996,0.0635468489465
1.7176157104817956e+18,-0.5741494804550001,7.427158829999836e-05,-0.046550633404899996
1.7176157106817956e+18,-0.19924117154124996,0.043128985283800006,0.01195342913285
1.7176157108817956e+18,0.023635641200999986,0.19770914537505,0.002371626894999995
1.7176157110817956e+18,0.5888348698549999,-0.041567710428,0.08935571535600001
1.7176157112817956e+18,0.26421674705,-0.35119631291000003,-0.06613982576465001
1.7176157114817956e+18,0.32306596115,-0.39490582347000003,-0.17687668007055
1.7176157116817956e+18,0.209789540988,0.018567571512000003,-0.08370692539349998
1.7176157118817956e+18,-0.4417290085985,0.2721623115205,0.1329052355536
1.7176157120817956e+18,-0.5058248296350001,0.13649399791885003,0.04351816573455
1.7176157122817956e+18,-0.4606526821900001,-0.004399119078999999,0.015303389845849997
1.7176157124817956e+18,-0.10902024040545,-0.024817129231,0.06735043768270002
1.7176157126817956e+18,0.17563506075600002,0.029303618712999996,-0.0331839481385
1.7176157128817956e+18,0.44732081740999996,0.44673442765800003,0.29592709774049997
1.7176157130817956e+18,0.2555044330625,-0.24700216536270006,-0.14603227423649998
1.7176157132817956e+18,0.3424036502809524,-0.31417642816666663,-0.1269867453895238
1.7176157134817956e+18,0.23678696299440002,-0.23856217685150005,-0.1623657792725
1.7176157136817956e+18,-0.29398494436999995,0.32110669462999997,0.2284167051445
1.7176157138817956e+18,-0.4981894433600001,0.11031962608585003,0.08226125884605
1.7176157140817956e+18,-0.349742358175,0.20435403119700002,-0.019018110117099994
1.7176157142817956e+18,-0.30378727168249997,0.016241267287784997,-0.007403065447249999
1.7176157144817956e+18,0.012981534929499999,-0.14161376133499998,-0.03270537118706
1.7176157146817956e+18,0.509490990268,-0.13830447167699997,0.027629134225049996
1.7176157148817956e+18,0.5560682758650001,-0.16017845739350003,0.0265789944036
1.7176157150817956e+18,0.09670914448105002,-0.26504803280950007,-0.17164104745210002
1.7176157152817956e+18,0.5147989720049999,-0.1902256090961,-0.11784553956399998
1.7176157154817956e+18,-0.2957755077709999,0.22935822941,0.025429006043500003
1.7176157156817956e+18,-0.697144809375,0.202840678857,0.167417965827
1.7176157158817956e+18,-0.466727574175,-0.03155881171350001,0.1050752524407
1.7176157160817956e+18,-0.2166428614395,-0.0986980541989,-0.0677430748965
1.7176157162817956e+18,0.09668471439344999,0.08200459506985,-0.004411335290200003
1.7176157164817956e+18,0.428860235205,0.10865199802695,-0.0953103357729
1.7176157166817956e+18,0.500486421585,-0.1268743115935,-0.10476464640695
1.7176157168817956e+18,0.25557743906999997,-0.1214202539308,0.0007036830826499995
1.7176157170817956e+18,0.39009586349,0.058268912908699996,0.041312990806000004
1.7176157172817956e+18,0.01711970635308499,0.04292527424465,-0.08313201191050001
1.7176157174817956e+18,-0.2212031405445,0.30265285372500006,0.11068916626224998
1.7176157176817956e+18,-0.30116547048000003,0.05228717045669999,0.0169846738064
1.7176157178817956e+18,-0.2773339869515,-0.021562513143999994,-0.007664197191549996
1.7176157180817956e+18,-0.23910806309850002,-0.238538284407,-0.0348023691155
1.7176157182817956e+18,-0.15326266086817503,-0.15645968727940002,-0.019636078919500012
1.7176157184817956e+18,-0.11357177932699998,-0.18960075798035,-0.09250832068899997
1.7176157186817956e+18,0.0032409743419999984,0.19189925938500002,0.13502277517800002
1.7176157188817956e+18,0.014733706584164997,0.21400051196499997,0.13387630498285
1.7176157190817956e+18,0.004817479929950001,-0.049945137184,-0.04794206132550001
1.7176157192817956e+18,0.11582447793850001,-0.023214542772200003,-0.06179669974299999
1.7176157194817956e+18,0.14981336631,0.03718696905695,-0.209652567288
1.7176157196817956e+18,0.306622543935,0.11770785022704999,-0.14221836711
1.7176157198817956e+18,0.3079880390215,-0.09029623568610001,0.1451699827684
1.7176157200817956e+18,0.016541175776950003,-0.008255276544500003,0.3003865555
1.7176157202817956e+18,-0.10670283714295503,-0.016228208504,0.0819906809613
1.7176157204817956e+18,0.10106424632964998,0.24051959443975002,0.07537927594825003
1.7176157206817956e+18,-0.017418904587095236,-0.0033048644557142825,0.0507417893277619
1.7176157208817956e+18,-0.06703592110350001,0.128943627507,0.06788220852469999
1.7176157210817956e+18,-0.030727289779100005,0.03252552977059999,0.04538146278345
1.7176157212817956e+18,0.08879590319184999,0.0726003883871,0.39418123811499994
1.7176157214817956e+18,0.03699592208525,-0.6891757688913,-0.060234156798500006
1.7176157216817956e+18,0.10366590630824998,-2.1207145751,-0.5029064521150002
1.7176157218817956e+18,-0.29200347662000004,-1.2580283373549999,-0.34642239287
1.7176157220817956e+18,-0.2529908589935,-1.1114815830000002,-0.25445697150904
1.7176157222817956e+18,-0.15375693406743499,-0.4260926166694999,-0.017754173522400003
1.7176157224817956e+18,1.98377756335,0.42120707817499997,-0.9728227425400002
1.7176157226817956e+18,3.6841490030500004,1.442970244826,-2.39014843404
1.7176157228817956e+18,3.007343471,5.602310288050001,-2.2388593078600003
1.7176157230817956e+18,0.45875104829049995,6.6415501355,1.2930582229124998
1.7176157232817956e+18,2.28606975675,7.427893757749999,5.21492192735
1.7176157234817956e+18,2.12893242988,2.96727871885,1.7509991705499999
1.7176157236817956e+18,0.18102688551949997,0.3570715339955,0.7780590966150001
1.7176157238817956e+18,-0.80735028298235,0.5597312322105001,0.84455831794
1.7176157240817956e+18,-1.5051232844300002,0.45253463583500003,0.695469008385
1.7176157242817956e+18,1.1014597378600002,0.0905849762185,0.5765719372479999
1.7176157244817956e+18,1.1654560893350001,-0.75354448188,0.05623328388050001
1.7176157246817956e+18,0.5612434430025001,0.24400732386849994,-0.030746536886499996
1.7176157248817956e+18,0.12617631261255,0.32972980143,0.1641678716125
1.7176157250817956e+18,0.1559029390114,0.278753072675,0.037639399031950016
1.7176157252817956e+18,0.12751994673050002,0.11268902284839999,-0.0639176795252
1.7176157254817956e+18,0.035033871418,-0.100001240056,-0.03125608834
1.7176157256817956e+18,,,
