Timestamps,Gyro_X,Gyro_Y,Gyro_Z
1.7176719487913836e+18,-0.0004191087957904761,-0.0003084583163390476,-6.45061510990476e-05
1.7176719489913836e+18,3.953848498000001e-05,-2.9030971995000006e-05,-0.0002671442751735
1.7176719491913836e+18,-6.363905263500001e-05,-0.0001940873044135,0.0008126671949350002
1.7176719493913836e+18,0.0009468676868999998,-0.0085796929897925,0.0013287585170325
1.7176719495913836e+18,-0.0008555886917185,-0.0032275634469155013,-0.0002687422733159999
1.7176719497913836e+18,0.00032693623803449994,-5.366585104699999e-05,-0.00011604327592850002
1.7176719499913836e+18,-0.00024312080354750004,-0.0013831669753000002,0.00015890775246000006
1.7176719501913836e+18,-0.1440479610157,0.238218901956605,0.134029341133652
1.7176719503913836e+18,1.21021148714,0.8560925632749999,0.15294490223815
1.7176719505913836e+18,1.1620809279600002,0.6316940514235001,-0.08934933289154998
1.7176719507913836e+18,0.022225707954500004,-0.647290162075,-1.38559228182
1.7176719509913836e+18,0.803616406942,1.6617056093400002,-1.0709850244335002
1.7176719511913836e+18,2.5051111280000002,1.7966095570019998,1.541681564096
1.7176719513913836e+18,2.0938999793899997,-1.2032706842,2.617903191
1.7176719515913836e+18,-0.8444169194000001,-1.0810953736150002,1.0588480801050002
1.7176719517913836e+18,-0.3700334757805,-0.560634563502,-0.06537782484299999
1.7176719519913836e+18,0.130368484005,-0.5506529508450001,0.06614446117350001
1.7176719521913836e+18,-0.09671657474309998,-0.5221660087190001,0.22266143076600006
1.7176719523913836e+18,-0.20614137602549998,-0.30238247812,-0.0089945750951
1.7176719525913836e+18,-0.27854661419000004,-0.38578717261,0.021537673115149994
1.7176719527913836e+18,-0.16725816391499998,-0.72789184155,-0.0159404255916
1.7176719529913836e+18,-0.040076939715,-0.42918316871499995,-0.060938013905999996
1.7176719531913836e+18,-0.1236895235205,-1.136319446605,-0.2542799806229
1.7176719533913836e+18,-0.25905062928500006,-1.82769446955,-0.62005535363
1.7176719535913836e+18,-0.291980700185,-2.09906709795,-0.706018397205
1.7176719537913836e+18,-0.0427027665066,-1.9554993629499997,-0.61114882976
1.7176719539913836e+18,-0.42155599966999996,-1.7275051951500004,-0.8603132039199999
1.7176719541913836e+18,-0.443221691995,-0.8330202517795,-0.6986786633849998
1.7176719543913836e+18,-0.9029835343249999,-0.5114128774029999,-0.514672023795
1.7176719545913836e+18,-1.03044108744,-0.4135264344549999,-0.21906476542999997
1.7176719547913836e+18,-0.9786058336850001,-0.772163227195,-0.2698166988805
1.7176719549913836e+18,-0.7208788558849999,-0.6020977407649999,-0.21137514821300002
1.7176719551913836e+18,-0.055059722900499986,-0.525402350715,-0.49729131907000007
1.7176719553913836e+18,-0.4107941078514,0.183469696721,-0.02241296576219999
1.7176719555913836e+18,-0.014884748679000002,0.1396052096925,0.1337053769577
1.7176719557913836e+18,-0.608501297985,-0.038201254468000004,0.11949638087965
1.7176719559913836e+18,-0.5982701316549999,0.36037397011000005,-0.03590585138421899
1.7176719561913836e+18,-0.31423580125499995,0.268452271069,0.058910638552500005
1.7176719563913836e+18,0.03627509200295,-0.05111143183905,0.0973587335975
1.7176719565913836e+18,0.583122533565,-0.1385421304525,0.014284286472549998
1.7176719567913836e+18,-0.12253780872250002,-0.00018415725785000044,0.0029452798778
1.7176719569913836e+18,-0.530088763695,0.013412772476749995,-0.00412698115295
1.7176719571913836e+18,0.171828224977,-0.087607268947615,-0.03319805195140001
1.7176719573913836e+18,0.465506103635,0.02397538523555,-0.043219237355250004
1.7176719575913836e+18,-0.22064014603395005,0.09916233992604999,0.0082245572242
1.7176719577913836e+18,-0.361578673875,-0.009478677600214999,0.03512597582
1.7176719579913836e+18,0.0834051160965,0.12797994835510001,0.0885415482872
1.7176719581913836e+18,0.4691616177549999,0.039273012731,0.036831083028920505
1.7176719583913836e+18,-0.21128028090900003,0.0917316267165,0.05839720517494999
1.7176719585913836e+18,-0.38109745942000006,0.17426780499589997,0.060604440595665
1.7176719587913836e+18,0.15724009837680952,0.014400983577619047,0.07265058638885716
1.7176719589913836e+18,0.39003291875499996,-0.03538611223885,-0.0765866647505
1.7176719591913836e+18,-0.32054714633750003,-0.15193090299849998,-0.13726857434899997
1.7176719593913836e+18,-0.3359142951635,-0.02664352575795,0.0385664264082
1.7176719595913836e+18,0.2220300819785,-0.11694145241000001,-0.027968722418949998
1.7176719597913836e+18,0.40645604430499993,-0.5608737766799999,-0.13465489330615
1.7176719599913836e+18,0.313675396905,-0.934039524225,-0.344697881495
1.7176719601913836e+18,0.21308778413,-1.79306414135,-0.625404411565
1.7176719603913836e+18,0.13004556852325,-1.8689291716499998,-0.568645273165
1.7176719605913836e+18,0.30364513210800004,-1.5798315263229996,-0.4196513153595
1.7176719607913836e+18,0.131773476867,-1.51427998553,-0.21964283362000003
1.7176719609913836e+18,0.22105168821299997,-2.1251019656500003,-0.16667707126734999
1.7176719611913836e+18,-0.035027954099935,-1.4331473425199999,0.6324852724300001
1.7176719613913836e+18,0.6141212120385,-1.8718853950000003,0.5445682338085
1.7176719615913836e+18,0.4595861356700001,-1.4088402420650001,-0.2155031263913
1.7176719617913836e+18,0.10256318519210002,-0.373297861225,-0.012421484211400005
1.7176719619913836e+18,0.12895912938399998,-0.14227937003200003,-0.025878457747399997
1.7176719621913836e+18,-0.04702054623526501,0.01753028869305,0.146749764683
1.7176719623913836e+18,-0.041110414872949995,-0.010487943712859998,0.09770921363369998
1.7176719625913836e+18,-0.013228556793819998,0.0179853876706,0.03867454368497
1.7176719627913836e+18,0.0018558362267300003,-0.011508997821085,0.0024128271558349996
1.7176719629913836e+18,-0.007965868304915,-0.0065178337330299985,0.009775489259290001
1.7176719631913836e+18,-0.00914664206785,0.0006505315075949999,-0.005442738009199999
1.7176719633913836e+18,0.009254869189800001,0.004039053711900001,0.0020781447121829503
1.7176719635913836e+18,-0.00426407857979,0.0003207043220850001,-0.0008599621243494998
1.7176719637913836e+18,-0.0055756773796799995,-0.0062126927543500006,-0.0011484497925345
1.7176719639913836e+18,0.0017400689073555002,-0.0031328787445335004,0.00021073855453354997
1.7176719641913836e+18,0.003376612055555,0.0031478389748500002,0.001028578780797
1.7176719643913836e+18,-0.0033180157886549995,-0.001069149130555,-0.001477363757915
1.7176719645913836e+18,-0.001037419599065,-0.0037649171427099996,-0.0006104720581849999
1.7176719647913836e+18,-0.000534729543122,0.002140300569656,-0.00016720820566500002
1.7176719649913836e+18,-0.0002960286568649999,-0.00045842394481,-0.0001774827367425
1.7176719651913836e+18,-0.0014599773567515,-0.00591422860155,-0.0005925422592499999
1.7176719653913836e+18,-0.0024682133225,0.0017448308647499996,-0.000550980214045
1.7176719655913836e+18,-0.004252214217585001,-0.0030263476422485005,-0.0014420246240085
1.7176719657913836e+18,0.00011474417978999994,-1.260701686250003e-05,-0.000977623451055
1.7176719659913836e+18,0.0009445247473649998,0.0006481402786319999,0.000369808840315
1.7176719661913836e+18,-0.0013826107140925002,-0.00218356742992,-0.000511388492366
1.7176719663913836e+18,-7.180791580500003e-05,0.00144095836432,5.768198172754998e-05
1.7176719665913836e+18,0.00028630484594999997,-0.0013634691888199997,-0.0009108850150659749
1.7176719667913836e+18,0.0012257778668549998,0.0020351968996325,-0.0003143928305135
1.7176719669913836e+18,-0.00037631661394000004,-0.0008639868523015002,5.2259227925000016e-05
1.7176719671913836e+18,-0.00013071214786340002,9.882290620499982e-05,-0.0003790825372405
1.7176719673913836e+18,0.0011245516362,0.0023215063207704992,0.0003789409296150001
1.7176719675913836e+18,0.001634703797631,0.0005753776349500001,0.00040222057144849996
1.7176719677913836e+18,0.001210934435955,0.007137577096539,-0.001174668443934
1.7176719679913836e+18,-0.00203007770477,-0.0030698495742149997,0.002099505794445
1.7176719681913836e+18,0.0039011335930700004,-0.001265909319085,-0.0006315669977120001
1.7176719683913836e+18,-0.00098251634044,-0.0006247347395715,-9.447912450949996e-05
1.7176719685913836e+18,-5.713896826750003e-05,-0.0008003607740900001,1.3672892244999971e-05
1.7176719687913836e+18,-6.551252443999996e-05,0.000331391667708,-0.000724917382505
1.7176719689913836e+18,-0.0003827754740604761,-0.0005653251981942857,-9.445938656904762e-05
1.7176719691913836e+18,0.00032493622271,0.0010009649791995002,-8.414920299500001e-05
1.7176719693913836e+18,0.00022104697997700002,0.0007699540990305,-0.0007142754271515
1.7176719695913836e+18,-0.00026172986255900007,-0.0004345406836635,1.5647884003000004e-05
1.7176719697913836e+18,0.0009908440871999997,0.0013718105386035001,-0.000532171735548
1.7176719699913836e+18,-0.0009211909957399999,-0.00043880944721300005,-0.000166616612091
1.7176719701913836e+18,0.00179729576917,0.00203992946186,-0.0009767137876049998
1.7176719703913836e+18,0.0033039519564259994,0.004056133085390001,-0.00028235195205905005
1.7176719705913836e+18,0.0008205739315800001,0.0001766335276885,-0.0003080345748579999
1.7176719707913836e+18,0.001212910097039,0.0008732393034899999,0.00045408415605600004
1.7176719709913836e+18,0.00037976093599999993,0.0007193741388540001,0.000485468667484
1.7176719711913836e+18,-0.0009762170957189999,0.00042560079020999996,0.0010214562237230002
1.7176719713913836e+18,0.0018687564064699999,0.0013545255875555997,0.0010448972170499999
1.7176719715913836e+18,0.00046734063650500003,0.00420940447354,0.0010155929951200001
1.7176719717913836e+18,0.0005643559969540004,-0.000610443914795,0.0006490968575172
1.7176719719913836e+18,-1.3092905324500058e-05,-0.003332019981565,0.000742662860995
1.7176719721913836e+18,-0.0008331924910044998,0.0025394362630495,-0.0002638976089975
1.7176719723913836e+18,-0.0006346201873949999,-0.0034412870009100003,3.854095704005e-05
1.7176719725913836e+18,-0.00081228110941205,0.001564814790638,-0.00023242203746800006
1.7176719727913836e+18,0.000961778825104,-0.0020941876166800004,0.0008670429699000001
1.7176719729913836e+18,-0.0020605040714,-0.0009537277743615,4.146946010549999e-05
1.7176719731913836e+18,-0.0005091234343705001,-0.001965398353167,5.4084940359500025e-05
1.7176719733913836e+18,-0.0014640455599850004,-3.5888369935000065e-05,0.00032538225065999995
1.7176719735913836e+18,-0.0020674041123049996,-0.004392936302000001,-0.0005754173559700002
1.7176719737913836e+18,-0.0021026773493945,0.0002857335727199999,-0.000534215720778
1.7176719739913836e+18,-0.0013521620188389999,-0.0038029099290499994,-9.158743775999998e-05
1.7176719741913836e+18,-0.00113979736345,0.00156889463539,-0.000478256272605
1.7176719743913836e+18,0.0003386435332045,-0.0009737860004905001,-5.7611550464e-05
1.7176719745913836e+18,-0.002839206752983,-0.000848192808865,-0.000518162245802
1.7176719747913836e+18,4.16418769695e-05,-0.002269618253897,0.0002400300175835
1.7176719749913836e+18,-0.0048389264965150005,-0.001954557292695,-0.0010953327990525
1.7176719751913836e+18,0.002573554462195,0.000901898491405,0.0007824289204350001
1.7176719753913836e+18,-0.002326128422268,0.0001607497513635001,-0.0005697142682860002
1.7176719755913836e+18,0.0022799366502964996,0.000571123347655,0.0005988682154955
1.7176719757913836e+18,-0.0028383472934200003,0.0008324961934080002,-0.00040318410031000006
1.7176719759913836e+18,0.00261498262399,0.0012541236298000001,0.00045296621971695005
1.7176719761913836e+18,-0.0028635913853900003,-0.0016101726623099998,-0.0008846338488360001
1.7176719763913836e+18,0.00579955173905,0.007404974778859999,0.0010459579818220001
1.7176719765913836e+18,-0.00128504334718,2.407538698549997e-05,-0.00043191855659
1.7176719767913836e+18,0.0011134475004190001,0.0006556302368049999,-0.00056972783641
1.7176719769913836e+18,-0.00146945078159,-0.0021402804938050004,-0.00017822291121285004
1.7176719771913836e+18,-0.0020213572657164997,-0.0015800145628549998,-0.0014327529353
1.7176719773913836e+18,0.00038258582354,0.00111554737088,0.00018679186466000002
1.7176719775913836e+18,-0.0011290910770550004,-0.000690022605645,8.288620152749996e-05
1.7176719777913836e+18,0.000950625201275,0.0008151472196649998,0.0005552251648584499
1.7176719779913836e+18,-0.0018816099036500001,-0.0005378715985000001,-0.00023589031769499997
1.7176719781913836e+18,8.94071302115e-05,-0.0013208076415750004,0.00023519970709299994
1.7176719783913836e+18,-0.001894838036891,7.246453891300002e-05,5.8680365724999736e-06
1.7176719785913836e+18,0.0005949813407249999,-0.0011712062172099997,-8.468290330149998e-05
1.7176719787913836e+18,-0.0009551452239499998,0.00106872281168,8.520898409199995e-05
1.7176719789913836e+18,0.0018891790299150001,0.001146065583545,0.00045528282645549995
1.7176719791913836e+18,-0.0031952857750285712,-0.0021437678674714284,-3.8778980391904785e-05
1.7176719793913836e+18,0.0012779023265755,0.0010927440656454998,-5.3782080068000056e-05
1.7176719795913836e+18,-0.0013313322211905,-0.001409179717275,0.00015327314028499997
1.7176719797913836e+18,-0.0006260081194159998,0.000117893313284,-0.00046011675144850005
1.7176719799913836e+18,0.000762115104522,0.0012004728777955,0.000570608692919
1.7176719801913836e+18,-0.000301962858079,-0.00046739915856699993,-5.8930960904000005e-05
1.7176719803913836e+18,-0.0006300439825269999,-0.0017507468233305002,-0.00047857869649700006
1.7176719805913836e+18,0.00213891504096,0.00438161923078,0.0005799712496900001
1.7176719807913836e+18,-0.004163145832694001,-0.0043780150824,-0.000334726448681
1.7176719809913836e+18,-0.0010453066440269498,-0.0006082735781495,0.0006511594983859999
1.7176719811913836e+18,0.00116950159433345,0.0030600100814299996,3.91717476345e-05
1.7176719813913836e+18,-0.0011959594208675,-0.0019200946844349996,-0.00022504535156749996
1.7176719815913836e+18,0.000520540447976,-0.00020468365987750002,3.567826350250002e-05
1.7176719817913836e+18,0.000585939071515,0.0018269790104550002,0.0006094843382164999
1.7176719819913836e+18,0.00018070798833104998,0.0007512210460450001,2.9287056457800016e-05
1.7176719821913836e+18,-0.0002699108095685,-0.000570576032597,0.000128885061702
1.7176719823913836e+18,0.0037273668220229998,0.006490695569050001,0.00130197326075505
1.7176719825913836e+18,0.021787364593499996,0.018876071915189998,0.00194875770843
1.7176719827913836e+18,0.01421160004035,0.08197589442099999,-0.025091249960855
1.7176719829913836e+18,-0.004673856368564999,0.009812158253300004,-0.0008795440425300005
1.7176719831913836e+18,-0.0046208427752099995,-0.0409915456079,0.00659862145585
1.7176719833913836e+18,-0.004425607458774501,-0.0033349064992499997,-0.002709251840159
1.7176719835913836e+18,-0.003279095259515,-0.012232809362700001,0.0035635109233850006
1.7176719837913836e+18,0.0007570556830599998,0.0028742741909469995,0.00019665411666849997
1.7176719839913836e+18,-0.004211605177204999,-0.01276754159405,-0.00047978576043500017
1.7176719841913836e+18,-0.002117656427465,-0.002720467816212,-0.001549754780705
1.7176719843913836e+18,-0.0019457888789670495,-0.0025809820508645,-0.00046796195669999985
1.7176719845913836e+18,-0.0030457223066949995,-0.0038873388779149995,-0.000499969348395
1.7176719847913836e+18,-0.007982577860605,-0.005307198688400001,-0.002445610822337
1.7176719849913836e+18,-0.006417968217069999,-0.00891280433855,-0.0005322688201285001
1.7176719851913836e+18,0.0038009342621100005,0.00235266024814,-0.00266631235136
1.7176719853913836e+18,0.00023357486348999992,-0.0012583185918900001,0.00108613893396
1.7176719855913836e+18,-0.002643616590715,-0.00132904262851,-0.0007898679759215001
1.7176719857913836e+18,0.0012855673557239998,0.0010600010864055,-0.0019194052962000004
1.7176719859913836e+18,-0.00042701895576499995,-0.005149734253000001,0.00106320710617
1.7176719861913836e+18,-0.00181861341699,0.001130788813995,-0.0011820120735649999
1.7176719863913836e+18,0.0017031591501250002,-7.278692203750007e-05,-0.001806792547026
1.7176719865913836e+18,-0.001746318465955,-0.003340905305335,-0.0004661743471005001
1.7176719867913836e+18,-0.0014811400673615,3.8923072774999995e-05,-0.0004979303863000001
1.7176719869913836e+18,9.0898992583e-05,0.00116786765865765,-0.00021165719369920004
1.7176719871913836e+18,0.0004039635765300001,-0.00293212733819,-1.0503520057449994e-05
1.7176719873913836e+18,-0.0014467155327845,0.0008863250549919002,-0.00041975812638
1.7176719875913836e+18,0.000521343538955,0.0008876781968750001,-0.00030193062269749996
1.7176719877913836e+18,-0.0005084696110025,-0.003093587199595,0.000142553425395
1.7176719879913836e+18,-0.0026789301424699997,-0.001344788854425,-0.00033948821945449997
1.7176719881913836e+18,0.00207630504156,0.0027257042762549497,-0.00035352077102849996
1.7176719883913836e+18,0.00118561504631,-0.00039192258264899996,0.000390142115112
1.7176719885913836e+18,-0.0021501133218819997,-0.00064445006432,-0.000457834888967
1.7176719887913836e+18,0.0038464410113849996,0.0040421457267050005,-4.699446143999993e-05
1.7176719889913836e+18,-0.00134162354517,-0.0007486637565495,0.00015395187644500006
1.7176719891913836e+18,0.001609413360825,0.0007692160782644,0.00014291427210599998
1.7176719893913836e+18,0.004398801973785714,0.003383468320908096,0.0008698308650785714
1.7176719895913836e+18,-0.00013795513651,0.0015203076240800002,-6.493768306500003e-05
1.7176719897913836e+18,0.004303739673905,0.004153773712314001,-0.000411722477296
1.7176719899913836e+18,0.035798531492000005,0.08399830422899998,-0.02249182593081
1.7176719901913836e+18,0.06459975484700001,0.02269609839365,-0.047478128211549994
1.7176719903913836e+18,0.09094058796950001,0.023462986447858,0.00523493474583
1.7176719905913836e+18,0.024631513938000008,1.0120373263300002,-0.03420570479293
1.7176719907913836e+18,-0.33540632948349997,1.68329411155,-0.12199346707900001
1.7176719909913836e+18,-0.420187269905,0.678389849505,-0.0711532991378
1.7176719911913836e+18,-0.6435723088899998,0.4346617439719999,-0.09799793218049999
1.7176719913913836e+18,-0.3017954272169999,0.35022032071,0.22724042234999997
1.7176719915913836e+18,-0.14465528270550002,0.9666342109749999,0.30340225621499994
1.7176719917913836e+18,0.100788676633,1.22791738515,0.5169251657899999
1.7176719919913836e+18,0.46758506148,1.4311432063500003,0.4834521399879999
1.7176719921913836e+18,0.0024143449870000023,0.9792474448599998,0.34485128299300005
1.7176719923913836e+18,0.6539923392225,3.05128560065,1.2872889398699998
1.7176719925913836e+18,1.24776575267,1.6025753677300003,0.07661532533999997
1.7176719927913836e+18,0.648111382115,1.1865929842300003,0.08607751704039998
1.7176719929913836e+18,-0.23866139184149998,0.2758139382065,-0.07393189343499999
1.7176719931913836e+18,-0.61242716611,-0.017142781972700003,0.1385441662707
1.7176719933913836e+18,-0.43690200672,0.1390797609489,-0.133219846707
1.7176719935913836e+18,-0.168920632311,0.053270195518999995,0.040022696408499994
1.7176719937913836e+18,0.15681697521550003,-0.21183784231499997,0.035875703587400005
1.7176719939913836e+18,0.4402660606495,-0.15612733512899998,-0.08840428664265
1.7176719941913836e+18,-0.2162084668925,0.0044849011617999965,0.06727300679445
1.7176719943913836e+18,-0.23016496156730004,0.23531386406499996,0.030460903044100002
1.7176719945913836e+18,0.19583331542979998,-0.1344603412247,0.0635369874026
1.7176719947913836e+18,0.4971374599805,-0.0032070752199999998,-0.018201462038900003
1.7176719949913836e+18,-0.38718697725999995,0.04896241429170001,-0.012137454805729999
1.7176719951913836e+18,-0.20019882606065004,0.03466537780825,-0.0288105825915
1.7176719953913836e+18,0.269077606491,-0.0043630155742000005,-0.028512708328199986
1.7176719955913836e+18,-0.0177441908045,-0.08440731950549998,-0.05292216423
1.7176719957913836e+18,-0.43043380081999993,0.2092454554485,0.08451855342134999
1.7176719959913836e+18,-0.13053829887845,-0.02908978459855,-0.08809891205733
1.7176719961913836e+18,0.2470613152765,-0.226545183728,-0.011262733023500001
1.7176719963913836e+18,-0.0013704072230000086,0.05999624695695001,-0.06502393430600001
1.7176719965913836e+18,-0.41775828600000003,0.15749870957185003,0.0642461097857
1.7176719967913836e+18,-0.07684660805499999,0.02011813828698,0.023801322569099996
1.7176719969913836e+18,0.400479875495,-0.341869920125,-0.038754553734304996
1.7176719971913836e+18,0.29623240902799997,-0.6014470040750001,-0.24347595348499995
1.7176719973913836e+18,-0.24218273083695002,-1.173654133085,-0.541878002875
1.7176719975913836e+18,-0.82397747045,-1.4229207039100003,-0.626002553075
1.7176719977913836e+18,-0.50024834127,-1.47636878475,-0.8377434402449999
1.7176719979913836e+18,-0.46162171363499993,-1.10505903062,-0.273381559177
1.7176719981913836e+18,-0.09855765439,-2.3560462832000004,-0.658432194595
1.7176719983913836e+18,-0.30193378068,-2.522552526,-0.5293834081889999
1.7176719985913836e+18,0.655775015444,-2.56996725795,0.19489949906000004
1.7176719987913836e+18,0.082332919358,-1.6417451047049998,0.01416397952045
1.7176719989913836e+18,-0.09318239150929,-0.049220206401499995,-0.1531849545
1.7176719991913836e+18,-0.042701685169605,0.009001416076135001,-0.19094055076150002
1.7176719993913836e+18,-0.044524896888500004,-0.071763320125,0.18628279137499998
1.7176719995913836e+18,0.010410513285523807,0.02016897863204762,0.0766830643010381
1.7176719997913836e+18,0.005692031839555,0.006916847749577,-0.00539172672982
1.7176719999913836e+18,0.0007575902972250002,0.0023812648373099997,-0.009288569399755
1.7176720001913836e+18,0.005429981753314,0.00464422179529,-0.005636428657520001
1.7176720003913836e+18,0.002226258441808,0.0010571752267595,0.0020783511980199997
1.7176720005913836e+18,-0.00184681008103,0.0042240274489000005,-0.001573856931605
1.7176720007913836e+18,-0.00026625258606,0.003922999836520001,-0.0037881557247350004
1.7176720009913836e+18,0.00020236158744315003,-0.005045521550545,-0.001134274969744
1.7176720011913836e+18,0.0019286663970151004,0.005602157511950001,-0.0010523434146671
1.7176720013913836e+18,0.00048268224335999986,-0.000863004609712,-0.0015861459192950001
1.7176720015913836e+18,0.00025324388410500004,-0.0017740721930700001,0.00015164077038500002
1.7176720017913836e+18,-0.000404052191883,0.003945898520734999,-0.00030217100871800007
1.7176720019913836e+18,-0.000243516627184,-0.00374201551307,-0.00530922614292
1.7176720021913836e+18,-0.00019164467229999997,0.0002986918029600001,-0.00024800786047
1.7176720023913836e+18,0.00060549295742,0.001327529235323,-0.0015809143717962504
1.7176720025913836e+18,0.00035986079599500004,-0.0017684000718249996,-0.0004893325851365001
1.7176720027913836e+18,-0.000834610068745,0.002795971324725,-0.000566016102713
1.7176720029913836e+18,0.002380571689055,0.0004623527755360001,-0.000589465681705
1.7176720031913836e+18,-0.000580156431445,-0.00049490896059,-0.0009101528558860001
1.7176720033913836e+18,-7.411476687999998e-05,0.0011612293835000002,-4.880394549150001e-05
1.7176720035913836e+18,0.00061563239426835,-0.0021612619865800002,-0.00135333160289
1.7176720037913836e+18,-0.0004943170118599999,0.0042719198333700005,-0.00034373305969999997
1.7176720039913836e+18,0.00136450978464,-0.001976888324035,-0.0004392417497200001
1.7176720041913836e+18,-0.00225560541725,0.0009453512611515,-0.00041643885190350004
1.7176720043913836e+18,0.00015664724628300004,0.0009038421907600002,-0.00052634649911055
1.7176720045913836e+18,0.0004600301384134999,-0.006386913853605,-0.0011358439689219998
1.7176720047913836e+18,-0.0017915600911200002,0.0036364739876999994,-0.0018756255274475
1.7176720049913836e+18,-0.00768128028179,-0.019696038002375005,0.0009298063756000001
1.7176720051913836e+18,-0.0013776116887250001,-0.00306002468012,-0.01379392880475
1.7176720053913836e+18,0.011053465679399998,-0.006848678307200001,-0.012793785845599998
1.7176720055913836e+18,0.008313852711579998,-0.010411417926289999,0.000694385048645
1.7176720057913836e+18,0.00024669163367,0.006138458091390001,-0.011662592262099999
1.7176720059913836e+18,-0.0020349053548900002,0.00019323285652999997,-0.0017255625977800001
1.7176720061913836e+18,-0.00199123481275,-0.00229825607381,-0.00082624250214
1.7176720063913836e+18,-0.00196284455009,-0.0043488435270850005,-0.0035750934912600002
1.7176720065913836e+18,-0.0013128645135249998,0.000982985470965,0.00023703618205183998
1.7176720067913836e+18,-0.00588258632915,-0.00282569188858,-0.0005489148317055
1.7176720069913836e+18,-0.0013013886287449998,0.0017582709435099999,0.0017100704659588999
1.7176720071913836e+18,-0.002137936442145,0.0013959006929999999,-0.00032186862663999993
1.7176720073913836e+18,0.0004582022316500001,-0.006123031681345001,0.001180483936285
1.7176720075913836e+18,-0.002507289312695,0.0031675334785900002,0.0004567577678615
1.7176720077913836e+18,0.000761186715725,-0.008108552556890001,0.0005830082925725
1.7176720079913836e+18,-0.0006506738020650002,0.005576721881504999,-0.0012828633189300002
1.7176720081913836e+18,0.0013492551515350002,-0.0013315239281249999,0.0025019247608884998
1.7176720083913836e+18,-0.0033156786813,-0.0013939301776705,0.000223405781426
1.7176720085913836e+18,-0.0019849101313605005,0.001297783554768,-0.0025528850966199993
1.7176720087913836e+18,-0.001427163032254,-0.003519587055449999,0.002075272100026
1.7176720089913836e+18,-0.0007793073077154999,0.004482964170154999,-0.00022656567161899997
1.7176720091913836e+18,-0.0015994519577100003,-0.007090498926195001,0.0004709572182
1.7176720093913836e+18,-0.0013912782072515,0.00697440753045,0.0014153215218815
1.7176720095913836e+18,0.0011480851564271,-0.0018968023822935002,0.00046795678203099997
1.7176720097913836e+18,0.0010508103295465002,-7.182167612500012e-05,0.00030311496815300004
1.7176720099913836e+18,0.0020180534394428572,0.0035146204478380947,-0.0007041788637580953
1.7176720101913836e+18,0.001041158009418,-0.0044008188183500005,0.000409449514736
1.7176720103913836e+18,-0.001188908715275,0.0031292703235164996,-0.0005731358833650001
1.7176720105913836e+18,0.0010303866584365003,-0.00421864834528,7.954178142000003e-05
1.7176720107913836e+18,-0.0006883801193334999,0.0038476553338299994,0.0009216612845
1.7176720109913836e+18,-0.0009084099554449998,-0.0016372908896000002,-0.001599113573465
1.7176720111913836e+18,0.0023861753288690005,0.00040590421410499996,0.0021318349754625003
1.7176720113913836e+18,0.00140132816739,0.00184235923801,0.000855236290935
1.7176720115913836e+18,0.000770931202014,5.3104013249999986e-05,0.00022967233094400006
1.7176720117913836e+18,0.0007804424502400001,0.0005039634008265,-0.00032131964104494996
1.7176720119913836e+18,-0.00019679201065500004,-0.0013553574563945,6.707616844650003e-05
1.7176720121913836e+18,-0.0018691883772450004,-0.00079157326834,-0.000325713399792
1.7176720123913836e+18,0.0017043460278014996,0.0019922310136885,0.000479683163594
1.7176720125913836e+18,-0.00174252865835,-0.000984858896165,-0.000544362224159
1.7176720127913836e+18,0.00148611872,0.0017950482549149997,0.00029527027506999996
1.7176720129913836e+18,-0.0018485848093535,-0.0012048203498505,-0.00010095394683999998
1.7176720131913836e+18,0.00076609498359155,0.001034511602505,4.236277311200002e-05
1.7176720133913836e+18,0.0004006982896900001,-1.2064207143500014e-05,0.0004200142226605
1.7176720135913836e+18,-0.0007993518608160001,0.0002627941953925,-0.00029157600369
1.7176720137913836e+18,0.0017462399089575003,0.001659111154792,0.000754826818544
1.7176720139913836e+18,-0.00282947684173,-0.001418616803144,-0.00034254771891164995
1.7176720141913836e+18,-0.0007482042302428501,-0.00025989460408,-0.0007308329397453001
1.7176720143913836e+18,0.0023709040137099998,0.00223137572188,0.0011946093581634998
1.7176720145913836e+18,-0.0034018680219650003,-0.0009942445846594999,-0.0008782702731499999
1.7176720147913836e+18,0.000696685922055,0.0006428985391485001,4.0133483745000014e-05
1.7176720149913836e+18,0.0004924031788490002,0.0017048041335368,0.00044726344642
1.7176720151913836e+18,-0.00274018552166,-0.00229906898461,-0.00019828953079900003
1.7176720153913836e+18,0.0014729582820300002,0.001390983501945,-0.000590023619543
1.7176720155913836e+18,-0.002049355907365,5.547186587899998e-05,0.0001883348100905
1.7176720157913836e+18,0.00020174492381,-0.00030412891643080003,-0.00042557189590250005
1.7176720159913836e+18,0.0016869346029749998,0.0031216497300700003,-7.377139412500003e-05
1.7176720161913836e+18,-0.003417866258075,-0.0017896230449915,4.299192799355e-05
1.7176720163913836e+18,0.0038519259541925006,0.0005681283479925,0.000251660490161
1.7176720165913836e+18,-0.002202318736835,0.0012224150239195002,0.000334150524582
1.7176720167913836e+18,0.0006786696031450001,-0.001496358972565,-0.0004754264490054999
1.7176720169913836e+18,0.00289470510325,0.0025551315397899996,0.00013851132249999997
1.7176720171913836e+18,-0.004568994627115,-0.0025908911541850004,-0.00042910222543500004
1.7176720173913836e+18,0.00073099551955108,-0.00015457188701499994,-0.00019129531575500002
1.7176720175913836e+18,0.0007969089667649997,0.0024509695765150006,0.000469567399663
1.7176720177913836e+18,-0.0028185765142599998,-0.003244412940599,-0.0008523290569300001
1.7176720179913836e+18,0.00532205789355,0.0044345597270499994,0.00026176825631500005
1.7176720181913836e+18,-0.005504760355430001,-0.0055143575068000005,-0.0005810541333499999
1.7176720183913836e+18,0.00044154841458000004,0.0005277373653099999,-0.0012475708674349998
1.7176720185913836e+18,0.003921754681680001,0.0016531227739849997,0.0006177876144415
1.7176720187913836e+18,-0.0054083274911265,-0.0035489012311949995,-0.0008551180828554999
1.7176720189913836e+18,-0.0024100746147550007,0.0023971720598250004,-0.00033676276217549996
1.7176720191913836e+18,0.0044125863468295005,0.00320367082609,0.00110289825822
1.7176720193913836e+18,-0.002710455702607,-0.0020565701765075,-0.0006369645474595001
1.7176720195913836e+18,-0.000819043698714,-2.6365095992499955e-05,-0.00048860657846
1.7176720197913836e+18,0.002854727150402,0.0010826796643215,0.001288768259137
1.7176720199913836e+18,-0.00243065159303,-0.0028051477158199997,-0.000308261637115
1.7176720201913836e+18,-0.0001227058070061905,0.0003427999548238094,8.213566067142857e-05
1.7176720203913836e+18,0.001983878493755,0.0013334188726135,0.001794312876925
1.7176720205913836e+18,-0.00033846476583750004,-0.0007557055796499999,5.936655217350002e-05
1.7176720207913836e+18,-0.000962292216713,-0.0016238787910055007,-0.0005978550994495001
1.7176720209913836e+18,0.0001268557156418,0.00018684112581299992,-0.000382131902675
1.7176720211913836e+18,-0.0002752345870355,0.0003745209250996,9.46199873000002e-06
1.7176720213913836e+18,0.0007000042940894,8.620211155950001e-05,2.4700712030000025e-05
1.7176720215913836e+18,-0.0009674832924605001,-0.00041085222622899996,-0.000527634297032
1.7176720217913836e+18,0.0011752016260435,0.0015215515158950002,0.000866035575711
1.7176720219913836e+18,-0.0005806833504940001,-9.368776806999996e-05,-0.0006859928486875001
1.7176720221913836e+18,-0.0009738159831815002,-0.0022153051512149996,-0.002219320857035
1.7176720223913836e+18,0.00044304348991600014,0.0021604498265809994,0.00141034948765
1.7176720225913836e+18,-0.0009244640125325501,-0.002328357193555,-0.0001619911344855
1.7176720227913836e+18,0.0008270504535529998,0.0013084170641646002,0.0009465926792
1.7176720229913836e+18,-0.0016662015812720001,-0.00020438738863799998,-9.306978899099999e-05
1.7176720231913836e+18,-3.7711684147000016e-05,0.0004181985452475001,3.7862476855000003e-05
1.7176720233913836e+18,-0.000291080086016,-0.00095311692565165,-0.00038477863416600016
1.7176720235913836e+18,0.0008539204602035,0.00136787788946,0.0007192209653304999
1.7176720237913836e+18,-0.0010056425933655001,-0.0011525417212945002,-0.0003284749458645
1.7176720239913836e+18,-0.00010098107162249998,0.00046474125707204997,0.0003637257789085
1.7176720241913836e+18,-0.0010130052222200002,-0.0009212637144900001,-0.001045501010875
1.7176720243913836e+18,-3.840212005999999e-05,0.00032160581321500004,-0.000361832772581
1.7176720245913836e+18,0.00048388105353950006,0.00035955084026799997,0.0004368280642414999
1.7176720247913836e+18,6.655186875649999e-05,0.00013905201922400002,0.000557406246634
1.7176720249913836e+18,-0.000135578005521,0.0003225306456229999,9.225358955199999e-05
1.7176720251913836e+18,0.0001195001415895,0.00022446708176599998,0.00010442482307184999
1.7176720253913836e+18,1.016750464599999e-05,-0.0003621235722345,0.0007292721885799999
1.7176720255913836e+18,-0.0001724923728,-0.0011068383813815003,-0.000453052070198
1.7176720257913836e+18,-9.581269700149996e-05,0.0012729219626249999,0.00015450043140779996
1.7176720259913836e+18,-0.00150828193867,-0.00154347504143,-8.209868107500001e-05
1.7176720261913836e+18,-0.00019585366826300001,0.00038420661592390005,-0.0004977854375509999
1.7176720263913836e+18,2.9193505151500026e-05,0.0005047539656870001,0.00031054556600450007
1.7176720265913836e+18,-0.0008892668061780001,-0.00028605997207650004,-0.00038871758158300003
1.7176720267913836e+18,-0.0037936063486515,0.0025477319838099997,0.0011742672940999999
1.7176720269913836e+18,-0.00557122700789,-0.00117067788384,-0.00110122452019
1.7176720271913836e+18,0.001729616103595,0.0020966085838500003,0.0017489795864300002
1.7176720273913836e+18,-0.0019300383980800002,-0.0021210867912065,-0.000593937560895
1.7176720275913836e+18,0.0006767209386924999,0.0020318712514699995,0.0004549592791399999
1.7176720277913836e+18,0.005340312922158,0.0064713098810271,-0.00068646501754
1.7176720279913836e+18,0.02480681041495,0.0485868088895,-0.1107545626339
1.7176720281913836e+18,0.085948617197,-0.0014156701043500002,-0.07665827558329799
1.7176720283913836e+18,0.0620816496192,0.091939897260695,0.094372961673
1.7176720285913836e+18,0.0080911938332,0.64720486403,-0.142408846292
1.7176720287913836e+18,-0.06226333589610002,0.41608740314,0.019107081285250002
1.7176720289913836e+18,-0.04089894914043,-0.09464998746049999,0.004590365383850001
1.7176720291913836e+18,-0.17708116965100001,0.15826302563,0.08229063630396
1.7176720293913836e+18,-0.6771303773399999,1.140883615575,-0.053571686796999994
1.7176720295913836e+18,-0.4344245874744998,0.67397207173,0.0094844356115
1.7176720297913836e+18,0.36476271003000005,0.770327706635,0.16636580713300003
1.7176720299913836e+18,0.43594123423,1.09415111543,0.4664578721
1.7176720301913836e+18,0.2743931747995,1.5246193946,0.38749907910000003
1.7176720303913836e+18,-0.25748366584250004,1.08509432376,0.48695431501
1.7176720305913836e+18,0.8409044273761905,1.5643035428523808,0.7356351897761906
1.7176720307913836e+18,0.8880539626000001,1.1366396247999997,0.3235801700053
1.7176720309913836e+18,0.686645236615,1.5143672465499998,0.8689721107450001
1.7176720311913836e+18,1.6191295892899997,1.9594375758900004,0.8300103462999999
1.7176720313913836e+18,0.10638549356200003,0.44530533034850006,0.6710439968409501
1.7176720315913836e+18,-0.222120032644,0.20430546867849997,-0.019504741025999993
1.7176720317913836e+18,-0.4023863494305,0.12441502203954999,-0.24876694419
1.7176720319913836e+18,-0.1515867743585,0.18027137536750001,0.024283049143199995
1.7176720321913836e+18,0.20648327451140003,0.107169300501,0.1702002041566
1.7176720323913836e+18,0.396617916225,-0.027174596376335004,0.26555796861
1.7176720325913836e+18,-0.003636782813500006,-0.21079178805350005,-0.0089065081429
1.7176720327913836e+18,-0.41054285540499996,0.286830867825,-0.1089526344099
1.7176720329913836e+18,-0.321088843055,-0.103065126113,-0.0727091721567
1.7176720331913836e+18,0.32452268507849996,-0.0906500402865,-0.0008626088010000009
1.7176720333913836e+18,-0.001774667212500003,-0.006103293064549998,0.14908529241500001
1.7176720335913836e+18,-0.112289577353,0.19919325398145,-0.024645524341150006
1.7176720337913836e+18,-0.08760006548199997,0.12604392206544998,0.050614552221050005
1.7176720339913836e+18,0.42260293960499995,-0.15496533180510003,0.0161168005314
1.7176720341913836e+18,-0.17594434388369998,0.0012775165950000057,-0.07188101615700002
1.7176720343913836e+18,-0.024296720252650006,0.591967792815,0.13706169645229996
1.7176720345913836e+18,0.0055432699530999965,-0.186775571672,-0.100073131169
1.7176720347913836e+18,0.30245445668,-0.6017088413149999,-0.049028977239110004
1.7176720349913836e+18,-0.00011177090800000566,-0.1446963651597,-0.11705902480050001
1.7176720351913836e+18,-0.31789648158999995,0.274054107251,-0.0116829926115
1.7176720353913836e+18,-0.249102684115,0.16056801005449997,0.03947228315715
1.7176720355913836e+18,0.03414429915065,-0.10936185561709999,-0.0314252190178
1.7176720357913836e+18,0.18448757053750003,-0.22701514513500004,-0.0172943956335
1.7176720359913836e+18,0.14980929504755,-0.36998970060999997,0.00436083958475
1.7176720361913836e+18,-0.09991923127650001,-0.133726133952,-0.11826269691033502
1.7176720363913836e+18,-0.17444118946445503,0.16674013110750002,-0.32276732549000003
1.7176720365913836e+18,0.13370745957104996,-0.8828045025950001,-0.66457980871
1.7176720367913836e+18,0.5355148380554999,-0.41786156669499996,-0.7754348937345
1.7176720369913836e+18,0.76911644938,-0.190478382583975,-0.326680421463
1.7176720371913836e+18,1.222625963495,0.317331156135,0.048927476089505
1.7176720373913836e+18,0.58127247729,-0.15716253742405,0.2613889097255
1.7176720375913836e+18,0.636143791675,-0.29138378723,0.013864341188400003
1.7176720377913836e+18,0.46970327645499993,-0.23008748367500004,-0.06415464929749999
1.7176720379913836e+18,0.42781243174999994,-0.209090074524,-0.088765670077
1.7176720381913836e+18,0.675117783265,-0.50524454712,-0.11572271902049999
1.7176720383913836e+18,0.7554366249419999,-3.0477446616,0.392505871326
1.7176720385913836e+18,-2.2376608741390003,-7.49143579,-2.2079628820090003
1.7176720387913836e+18,-2.4205255925499998,-6.34714875215,-4.515204417750001
1.7176720389913836e+18,-1.4067137599100001,-4.53910609485,-2.2860838175000002
1.7176720391913836e+18,0.08661806043799998,-1.9190024674100001,-1.557623744
1.7176720393913836e+18,0.17193461592050002,-0.015278878523350003,-1.435210093795
1.7176720395913836e+18,0.294445496785,-0.098486094519,-0.8101032957850001
1.7176720397913836e+18,-0.11369355990150001,-1.4355117324388997,-2.20459774135
1.7176720399913836e+18,0.27623127324349994,-0.33623921460750006,-0.8268461674250001
1.7176720401913836e+18,-0.2733262231595,0.0549171737365,-0.21700981686175003
1.7176720403913836e+18,-0.009786301166750002,0.08567774249249999,-0.10001737568679
1.7176720405913836e+18,0.04369669851405,-0.0365859310083,-0.01646554687005
1.7176720407913836e+18,0.018904095441111112,0.023957278067777775,-0.006842958730500002
1.7176720409913836e+18,,,
