Timestamps,Acc_X,Acc_Y,Acc_Z
1.7176722084464955e+18,-3.1438972319,0.6012771377599999,9.2094039459
1.7176722086464955e+18,-2.4952061920499995,0.24719595338500006,9.47843948375
1.7176722088464955e+18,-1.4227763214549998,-0.5045258331050999,9.576740066850002
1.7176722090464955e+18,-0.8234077147465,-1.77045082845,9.91532846855
1.7176722092464955e+18,0.35381174471044996,-0.2676509170915,8.1438747254
1.7176722094464955e+18,4.387518608150001,2.063234481865,7.072724693299999
1.7176722096464955e+18,12.090260674149999,12.240817588549998,-3.6829637375499997
1.7176722098464955e+18,12.0016374667,9.77761484485,-3.9424266816000006
1.7176722100464955e+18,4.076757339499999,8.1170729599,-0.07710466003250001
1.7176722102464955e+18,-1.641546386709,8.6145933609,-0.9635013885600001
1.7176722104464955e+18,-0.15665673077449996,9.36066439795,-0.1789977722205
1.7176722106464955e+18,-1.726247749353,10.4136197666,2.3275473403149998
1.7176722108464955e+18,-0.83234413152,8.66476901975,4.165522751
1.7176722110464955e+18,-0.6794520721399999,8.79500569155,4.60098969265
1.7176722112464955e+18,-0.48728917693999996,8.284552185099999,5.08960361475
1.7176722114464955e+18,-0.31307395935700005,8.071298149099999,5.5291495743
1.7176722116464955e+18,0.12792398071799999,9.282968467749999,5.063827217150001
1.7176722118464955e+18,-1.7221013718600002,6.537190841649999,7.08095008845
1.7176722120464955e+18,-2.2824693699789473,2.465775026105263,8.61145817005263
1.7176722122464955e+18,0.28575576782000006,3.469956688000001,9.435156990100001
1.7176722124464955e+18,0.6984251174494999,5.1254914855500004,9.188080787650001
1.7176722126464955e+18,2.4627686462494998,3.0419068221499996,7.8575501402
1.7176722128464955e+18,2.1092188566849996,0.2004706192155,9.5997771597
1.7176722130464955e+18,0.098644866975,1.3478571166799997,10.109938773999998
1.7176722132464955e+18,0.36182009124200004,0.992249107325,9.771507545550001
1.7176722134464955e+18,0.9313707046200003,1.53237840273,9.388648704400001
1.7176722136464955e+18,0.5159171447740499,0.268436782875,9.84146456885
1.7176722138464955e+18,0.19796333312799996,-0.55887032318,9.86292993165
1.7176722140464955e+18,0.5105732574449999,-0.5730533294650001,9.8769931869
1.7176722142464955e+18,0.6020704879750001,-0.41876916503499995,9.80154258715
1.7176722144464955e+18,0.6112389221100001,-0.3971990203950001,9.7971342544
1.7176722146464955e+18,0.622922126785,-0.32350726318999995,9.7998585892
1.7176722148464955e+18,0.650943855295,-0.26665548706500003,9.781409454350001
1.7176722150464955e+18,0.5470973053,-0.28338320160499997,9.820186317500001
1.7176722152464955e+18,0.7688386917200001,-0.050265472414,9.761845138450003
1.7176722154464955e+18,0.5106855239635,-0.41911344909,9.92222911835
1.7176722156464955e+18,1.1710700105631577,-0.27959489515789465,9.946161587315789
1.7176722158464955e+18,0.49927924346,2.11694279487,9.099854255699999
1.7176722160464955e+18,0.9841210098254999,1.1490031356950001,9.3881771852
1.7176722162464955e+18,0.39251376347500005,2.10319388587,9.5745097046
1.7176722164464955e+18,-3.4618959503049993,0.194557914759,10.4351075831
1.7176722166464955e+18,-1.7268315353750001,0.7660095749400002,8.633536468549998
1.7176722168464955e+18,-0.5491854629549999,0.43722578431100007,7.942752960149998
1.7176722170464955e+18,-0.8190891952699999,-1.5147525558500001,9.166323532099998
1.7176722172464955e+18,-0.570763091991,-3.7102370223500003,10.47124992435
1.7176722174464955e+18,0.769587135275,-3.5943255616000003,11.4499821395
1.7176722176464955e+18,-0.3781885528565,-3.44842396545,10.6522684936
1.7176722178464955e+18,-0.23079755401500002,-2.1153186722000004,9.5054059067
1.7176722180464955e+18,-1.7198859787050005,-0.4000954971315001,9.50606453665
1.7176722182464955e+18,-0.3171155548105,0.9866357803580001,6.617423995999999
1.7176722184464955e+18,-1.2775183868625,-1.060372444161,8.746888252349999
1.7176722186464955e+18,-0.9137298889000002,-2.73565118405,10.456812446599999
1.7176722188464955e+18,-0.64705194858,-3.2368464432,11.243748504
1.7176722190464955e+18,-0.654790855405,-3.5973118515499998,10.849887542800001
1.7176722192464955e+18,-0.3175212900160526,-1.7452129162947372,9.589209136842106
1.7176722194464955e+18,-0.59934615326,-0.7663314056085,9.3690319977
1.7176722196464955e+18,-0.3309393081708999,0.7983947296300001,6.861768379100001
1.7176722198464955e+18,-0.7625293121154999,-0.6929689636145,8.253918388399999
1.7176722200464955e+18,-0.9156084823039998,-2.64571071625,10.53423145295
1.7176722202464955e+18,-0.7414381714014999,-3.23116575635,11.51618946025
1.7176722204464955e+18,-0.7840470657262999,-3.23853044125,11.088109657050001
1.7176722206464955e+18,-0.6838379516499999,-1.77958184048,9.777944160199997
1.7176722208464955e+18,-0.76341996002,-0.7058945846715,9.101470893750001
1.7176722210464955e+18,-0.5698574752750002,1.35603760527,6.754681068449999
1.7176722212464955e+18,-0.5123844909775,-0.70453241731,8.3321906204
1.7176722214464955e+18,-1.1000998306549998,-2.59029595185,10.67106191305
1.7176722216464955e+18,-0.45370651243500004,-3.3465682754499992,11.543230728000001
1.7176722218464955e+18,-0.8153320083700001,-3.05616467275,10.792646575800001
1.7176722220464955e+18,-0.45089984893000007,-1.4598991242100001,9.863603530799999
1.7176722222464955e+18,-0.33911979674984993,-0.5918692016895,9.232717964099999
1.7176722224464955e+18,0.0207917633045,1.109133544834,7.3667432783999995
1.7176722226464955e+18,-0.32704740142275,-0.072748718292,8.226914543149999
1.7176722228464955e+18,-0.44138476721578956,-2.0800744629473686,10.187168306789474
1.7176722230464955e+18,-0.304526733452,-2.7796072769499998,10.732980651999998
1.7176722232464955e+18,-0.8436381454850002,-3.2045885239,11.7333054655
1.7176722234464955e+18,-0.48202013397500004,-2.0616253280000003,9.699686897299998
1.7176722236464955e+18,-1.348298698465,-1.028114524945,9.579524276650002
1.7176722238464955e+18,-0.6441180496275001,0.36738102724700006,9.254961707949999
1.7176722240464955e+18,-0.3545377349885,1.1568842468365,7.473426429849999
1.7176722242464955e+18,-0.1098565521225,1.7422195358500001,8.7247567749
1.7176722244464955e+18,0.05242098999167499,2.3744073943000004,10.23739123485
1.7176722246464955e+18,-0.4800367584050001,1.056315879815,9.447528763049998
1.7176722248464955e+18,-0.7799979858049999,0.25632696533349997,10.798738906199999
1.7176722250464955e+18,-0.342158477795,0.30960866547169996,10.206046417549999
1.7176722252464955e+18,-0.5793028335699999,-0.38612953948850004,10.00045644295
1.7176722254464955e+18,-0.4813091125729999,-0.66527655024735,9.86547464035
1.7176722256464955e+18,-0.4969740371835,-0.862723457347,9.80535964985
1.7176722258464955e+18,-0.159620567317,-0.34382002257550004,9.63093486785
1.7176722260464955e+18,-1.1774664458900002,-0.71513037875,9.828456619449998
1.7176722262464955e+18,-2.1707558899,-0.7191719741850001,9.71252270475
1.7176722264464955e+18,-2.177970886210526,-0.7061683574578947,9.495582781368421
1.7176722266464955e+18,-2.0595671081000004,-0.6235732727100001,9.576672706649997
1.7176722268464955e+18,-1.50907935331,-0.548384628295,9.6433216096
1.7176722270464955e+18,-1.0787542190200001,-0.773815841675,9.62200593555
1.7176722272464955e+18,-1.3160482635000001,-1.105136856025,9.79309265915
1.7176722274464955e+18,-0.91267458344,-1.11902796928,9.7270649644
1.7176722276464955e+18,-0.98994390109,-0.9942100295599999,9.70854098505
1.7176722278464955e+18,-1.07867937475,-1.06012545775,9.72712483975
1.7176722280464955e+18,-1.0643391952149999,-1.0577229538000001,9.70949899295
1.7176722282464955e+18,-1.0742261352499998,-1.0247839508149998,9.7089301759
1.7176722284464955e+18,-1.0739417267000002,-1.044468017685,9.711759292600002
1.7176722286464955e+18,-1.11629615025,-1.0579250335500001,9.710299827650001
1.7176722288464955e+18,-1.02182759854,-1.0561362533999998,9.70979837045
1.7176722290464955e+18,-1.0861638108,-1.0591674499549997,9.7085484696
1.7176722292464955e+18,-1.0772124252000002,-1.05695954135,9.71504496
1.7176722294464955e+18,-0.9486747207549999,-1.0352920989049998,9.718427925099999
1.7176722296464955e+18,-1.0201061782749998,-1.0316995696550002,9.710629142799998
1.7176722298464955e+18,-0.9733733596599998,-1.03169208534,9.7066249694
1.7176722300464955e+18,-0.972393686394737,-1.0840614720526316,9.718650488578945
1.7176722302464955e+18,-1.05281316376,-1.08155339815,9.71550151075
1.7176722304464955e+18,-1.00096099089,-1.0831101608499998,9.713061584399998
1.7176722306464955e+18,-1.0119481430250001,-1.08262367255,9.708436203049999
1.7176722308464955e+18,-1.0498418426999998,-1.0894419937,9.7144761429
1.7176722310464955e+18,-1.01248702247,-1.1003617859,9.7119089813
1.7176722312464955e+18,-1.0592946852999998,-1.06222109985,9.708121856750001
1.7176722314464955e+18,-1.0394534454,-1.0738968200499999,9.7157559815
1.7176722316464955e+18,-0.9761201476949999,-1.049834358275,9.717604637099999
1.7176722318464955e+18,-1.0252854079499998,-1.0192454681199998,9.7151497422
1.7176722320464955e+18,-0.97582077026,-0.9915979614200001,9.722087814350001
1.7176722322464955e+18,-0.98024407194,-0.9762623520200002,9.7222599564
1.7176722324464955e+18,-0.9587188339350001,-0.9472451934999999,9.711437461749998
1.7176722326464955e+18,-1.0231373749500001,-0.9961035918899999,9.71155721285
1.7176722328464955e+18,-1.0886561276999998,-1.0676098938599998,9.72032897185
1.7176722330464955e+18,-1.1073597336,-1.0598410492,9.70391560365
1.7176722332464955e+18,-1.0794203339000004,-1.0832748184,9.704798766949999
1.7176722334464955e+18,-1.0987601165999998,-1.100997963,9.705053238
1.7176722336464955e+18,-1.1056087693684211,-1.1026465084736843,9.699175198105262
1.7176722338464955e+18,-1.08383615115,-1.0966495055500003,9.6984744186
1.7176722340464955e+18,-1.0830502852500001,-1.11688742075,9.70695428465
1.7176722342464955e+18,-1.0704914017,-1.1040441284500002,9.704282340899999
1.7176722344464955e+18,-1.06892715457,-1.1169847183500001,9.7022241212
1.7176722346464955e+18,-1.0101818161249998,-1.1178603973999999,9.706931831449998
1.7176722348464955e+18,-1.08635840615,-1.0660007400500002,9.7003829499
1.7176722350464955e+18,-1.032724937445,-1.1197539597000001,9.70966365055
1.7176722352464955e+18,-1.05451213085,-1.04928799425,9.7039081191
1.7176722354464955e+18,-1.03714075471,-1.0978320464500002,9.708316452000002
1.7176722356464955e+18,-1.0101818161299998,-1.0806253281000002,9.718734786899999
1.7176722358464955e+18,-0.903625900265,-1.032754875225,9.71349568175
1.7176722360464955e+18,-0.975588752735,-1.0270217971800002,9.725276184100002
1.7176722362464955e+18,-0.9413923645050002,-0.9569001159599999,9.720778037999999
1.7176722364464955e+18,-0.95189302829,-1.00570612339,9.7250441666
1.7176722366464955e+18,-1.02395317838,-1.00645456696,9.707463226249999
1.7176722368464955e+18,-1.03055445098,-1.0209893417,9.7139896546
1.7176722370464955e+18,-1.0806328125,-1.038300842265,9.708623313899999
1.7176722372464955e+18,-1.0322219045421053,-1.0679423602421054,9.728080878052632
1.7176722374464955e+18,-1.0560165023950003,-1.0281818848050002,9.70024074555
1.7176722376464955e+18,-1.07821533965,-1.0773621139,9.711766777049998
1.7176722378464955e+18,-1.06128554535,-1.0410326613999996,9.703735977200001
1.7176722380464955e+18,-1.0851608962500001,-1.1038495329499998,9.705681930399999
1.7176722382464955e+18,-1.0811492386,-1.0934012603999999,9.70200707255
1.7176722384464955e+18,-1.0541828156499997,-1.0991867293999997,9.6954207687
1.7176722386464955e+18,-1.1077189865,-1.1589873732999998,9.69942494205
1.7176722388464955e+18,-1.1278296661,-1.1185639343,9.6941708679
1.7176722390464955e+18,-1.1115210800000004,-1.1622131652999999,9.6981226501
1.7176722392464955e+18,-1.11053313445,-1.12277018745,9.7018274459
1.7176722394464955e+18,-1.0807600479,-1.1242970123,9.69287606045
1.7176722396464955e+18,-1.08646318825,-1.13751452625,9.69395381915
1.7176722398464955e+18,-1.0597512359499999,-1.1082952881500001,9.7043646698
1.7176722400464955e+18,-1.0636206894500002,-1.0997480623,9.7054349441
1.7176722402464955e+18,-1.0179656296350001,-1.061525047415,9.694522636349998
1.7176722404464955e+18,-1.015465828,-1.10542874905,9.7024187164
1.7176722406464955e+18,-1.0501262511,-1.1405681763,9.703915603599999
1.7176722408464955e+18,-1.0682574944210526,-1.1247689258421054,9.703358603947368
1.7176722410464955e+18,-1.04806803129,-1.1732676774,9.69793553925
1.7176722412464955e+18,-1.02622096254,-1.17671800225,9.695143844549998
1.7176722414464955e+18,-1.07306604765,-1.1901450804999998,9.699058204550003
1.7176722416464955e+18,-1.05928720095,-1.1821067961999998,9.694822013949999
1.7176722418464955e+18,-1.05981111145,-1.2024569778,9.69039871205
1.7176722420464955e+18,-1.0594144363,-1.1747945022,9.69099746705
1.7176722422464955e+18,-1.0683283997,-1.2200828247500002,9.700869438249999
1.7176722424464955e+18,-1.0570343857500002,-1.1935130769,9.69846693415
1.7176722426464955e+18,-1.0677670670500001,-1.21397552485,9.687419906599999
1.7176722428464955e+18,-1.0811567229999999,-1.1464060363499997,9.6930781402
1.7176722430464955e+18,-1.1049871672,-1.1814032593000001,9.702575889550001
1.7176722432464955e+18,-1.0330841904099999,-1.10750193782,9.685159606850002
1.7176722434464955e+18,-1.10241252125,-1.11903545385,9.699252799899998
1.7176722436464955e+18,-1.03098854835,-1.07559578705,9.6951213913
1.7176722438464955e+18,-1.0585911484,-1.11818222805,9.707964683500002
1.7176722440464955e+18,-1.10277925865,-1.1032657471999998,9.688482696650002
1.7176722442464955e+18,-1.1226579208000003,-1.1241099014500002,9.695914741500001
1.7176722444464955e+18,-1.1454574826315789,-1.1454732393157896,9.68931149936842
1.7176722446464955e+18,-1.1120150528,-1.1408076781999998,9.694799560549999
1.7176722448464955e+18,-1.1279793548000001,-1.1663146363499999,9.690518463050001
1.7176722450464955e+18,-1.11127409365,-1.16183894355,9.6874199067
1.7176722452464955e+18,-1.14858400725,-1.2030856704500001,9.6991105956
1.7176722454464955e+18,-1.1516152038999998,-1.160783638,9.683475608799998
1.7176722456464955e+18,-1.1457324371,-1.1906615066500001,9.68181406415
1.7176722458464955e+18,-1.12056976325,-1.1451187134499998,9.693609535250001
1.7176722460464955e+18,-1.1507245558999997,-1.1577000504000001,9.690436134399999
1.7176722462464955e+18,-1.0873089294499998,-1.14953453065,9.6943055878
1.7176722464464955e+18,-1.0790086898999998,-1.1440858612,9.705532241850003
1.7176722466464955e+18,-1.0989696807500002,-1.0577828293,9.705936401349998
1.7176722468464955e+18,-1.0578277358000001,-1.0565029907350003,9.71934102635
1.7176722470464955e+18,-1.04813539121,-0.91135732269,9.719019195599998
1.7176722472464955e+18,-1.0263856201000001,-0.841774520885,9.7306574936
1.7176722474464955e+18,-0.9873617706450002,-0.7644228744449999,9.735672065700001
1.7176722476464955e+18,-0.9869501266699998,-0.7181615753250001,9.73442964935
1.7176722478464955e+18,-1.03959564975,-0.7450606384299999,9.728816322450001
1.7176722480464955e+18,-1.0277154862105264,-0.7227759270842105,9.74156861968421
1.7176722482464955e+18,-1.0226957930949998,-0.8019423522750001,9.7147306138
1.7176722484464955e+18,-1.0996432799999998,-0.9040150909,9.720067016600002
1.7176722486464955e+18,-1.0745629349499999,-1.04394410705,9.72448283385
1.7176722488464955e+18,-1.0946885833499997,-1.086343437245,9.70860834505
1.7176722490464955e+18,-1.1257489929,-1.1116557999,9.692284790050001
1.7176722492464955e+18,-1.1566447449000001,-1.1780726852,9.68965026855
1.7176722494464955e+18,-1.10898385625,-1.1879222029999998,9.68780161285
1.7176722496464955e+18,-1.1289373627,-1.19153718565,9.679898048450001
1.7176722498464955e+18,-1.1408301314999998,-1.21027821345,9.684508460950001
1.7176722500464955e+18,-1.1171793137,-1.2045975265000002,9.6857134552
1.7176722502464955e+18,-1.1223959654999998,-1.2098740539500001,9.689770019650002
1.7176722504464955e+18,-1.12341384895,-1.21176761625,9.686821151750001
1.7176722506464955e+18,-1.1582613831,-1.1993509368999997,9.6868061829
1.7176722508464955e+18,-1.0945838012500002,-1.2394749986,9.685691001899999
1.7176722510464955e+18,-1.1032358093499999,-1.17647850035,9.6850772781
1.7176722512464955e+18,-1.1305390319500002,-1.1993135145999998,9.684149208
1.7176722514464955e+18,-1.1250529403000002,-1.158792778,9.68605025475
1.7176722516464955e+18,-1.1258640169473686,-1.1898992757894735,9.67072646294737
1.7176722518464955e+18,-1.13033695235,-1.1567570115,9.687472297749999
1.7176722520464955e+18,-1.16756453705,-1.2022474136499999,9.687636955299999
1.7176722522464955e+18,-1.13314361575,-1.1956760788,9.685159607
1.7176722524464955e+18,-1.1694057083,-1.2242666244499998,9.6742547836
1.7176722526464955e+18,-1.1420201568500004,-1.1891496504999997,9.681716766349998
1.7176722528464955e+18,-1.1704535295,-1.2226125640499999,9.683101387
1.7176722530464955e+18,-1.1816652145499997,-1.21161044315,9.68062403875
1.7176722532464955e+18,-1.14047087865,-1.2111987991500002,9.679748359600001
1.7176722534464955e+18,-1.1734772415,-1.2215946807499998,9.722035423250002
1.7176722536464955e+18,-0.9758432235599999,-1.0291623459299999,9.644234710749998
1.7176722538464955e+18,-0.9104966125799999,-0.78638969422,9.790907203649999
1.7176722540464955e+18,-1.10501710519,-1.1712019729650003,9.6737982329
1.7176722542464955e+18,-0.5441334686444651,-2.27374921415,9.5712464904
1.7176722544464955e+18,-0.7044949951349999,-1.5129413223000001,9.6056748963
1.7176722546464955e+18,-0.8063656539899998,-1.8037939912000003,9.633187683150002
1.7176722548464955e+18,-0.7419096908799999,-2.0401524810500002,9.6465474014
1.7176722550464955e+18,-0.67375641632,-1.78417728435,9.70455926515
1.7176722552464955e+18,-0.7376975290210526,-1.9345927830526315,9.795732301526314
1.7176722554464955e+18,-0.5487588500949998,-1.019731956515,9.722095298749998
1.7176722556464955e+18,-0.314720535271,-0.258228012091,10.429928351650002
1.7176722558464955e+18,0.742134223958,0.328866119392,11.257003442
1.7176722560464955e+18,-0.09824070739650001,1.6077466735415,9.906182488150002
1.7176722562464955e+18,0.6575077057235001,0.956151672369,8.7637955932
1.7176722564464955e+18,0.0638497238135,1.065035247765,7.82378036505
1.7176722566464955e+18,-0.21296962738499997,0.2034643936005,9.0743847198
1.7176722568464955e+18,-1.1668235779075,-1.02962638093885,9.2540785447
1.7176722570464955e+18,-0.5624703369199999,-1.8989062041999998,9.79214962025
1.7176722572464955e+18,-0.9967248000889997,-2.44788958745,10.302206450500002
1.7176722574464955e+18,0.007933502190999994,-3.0034817275999997,11.412043532999999
1.7176722576464955e+18,-0.20993843077949997,-2.6231002349,9.74007291395
1.7176722578464955e+18,-0.5686599655000001,-1.21321211241,9.6990582049
1.7176722580464955e+18,-0.5082755355585001,0.623109237686,7.994088706950002
1.7176722582464955e+18,-0.08067473602650002,-0.14880555724300001,7.9578565521
1.7176722584464955e+18,-0.5830076293595,-1.729540901165,10.16161132
1.7176722586464955e+18,0.26753116607800004,-2.12822932435,10.28566584805
1.7176722588464955e+18,-0.351319427513721,-2.823074124052632,11.470630910526316
1.7176722590464955e+18,-0.40766974637865,-2.4875496138999997,10.079611839250001
1.7176722592464955e+18,-0.0557066574145,-1.2817620620299999,9.8646738046
1.7176722594464955e+18,-0.68562673187,-0.01048569487299995,9.275513969
1.7176722596464955e+18,-0.24006328583100003,0.7883655853,6.941312965399999
1.7176722598464955e+18,-0.5941070480399999,-0.8903709640029,9.425202690350002
1.7176722600464955e+18,-0.03607498169049998,-2.0230655134999997,10.6054832845
1.7176722602464955e+18,0.11747570801425,-2.16680410765,10.729874611000001
1.7176722604464955e+18,0.06887926483800003,-2.2726415175500003,11.051248809
1.7176722606464955e+18,-0.1125509490945,-2.0874840546,9.67207681265
1.7176722608464955e+18,-0.02746039580299999,-1.0407482528549998,9.58156752775
1.7176722610464955e+18,-0.7067627792735001,0.362875396739,8.790776985049998
1.7176722612464955e+18,-0.078841049209,0.38725220491500006,7.511020752
1.7176722614464955e+18,-0.7764578476399999,-1.4470333786099998,9.759974029650001
1.7176722616464955e+18,-0.55440211482095,-2.3485786056,10.495387229
1.7176722618464955e+18,-0.481780632087,-2.4661067046999996,10.2146684882
1.7176722620464955e+18,-0.3728596344,-2.4863071976,10.962954918000001
1.7176722622464955e+18,-0.92755364233,-2.3877895659999995,9.724572646850001
1.7176722624464955e+18,-0.09572199771894738,-1.0716688215631578,9.854930251894737
1.7176722626464955e+18,-1.1154953154875,0.12571607208000002,9.305047554
1.7176722628464955e+18,-0.5019287338439999,0.5802383880649999,7.309240356450002
1.7176722630464955e+18,-0.5287903747135,-0.415580795256,9.32335448465
1.7176722632464955e+18,-0.520752090461,-1.9597397002999997,10.4398152925
1.7176722634464955e+18,0.010321037300500002,-1.8302439880499999,10.094199004699998
1.7176722636464955e+18,-0.2991005172425,-2.4656052476000005,10.7008948754
1.7176722638464955e+18,-0.38868921661050004,-2.3731200715000003,10.25334056785
1.7176722640464955e+18,-0.3644246749830001,-1.610994918925,9.67614086145
1.7176722642464955e+18,-0.4115841064415001,-0.4238436126779999,9.531549041599998
1.7176722644464955e+18,0.18660195923550002,0.3645968170335,9.35972884365
1.7176722646464955e+18,-0.06399941253699999,0.8435633010750003,8.3602048645
1.7176722648464955e+18,0.21229602812850001,0.6072572021685,9.2369990617
1.7176722650464955e+18,-0.478262947078,0.05542224883399997,9.85289330385
1.7176722652464955e+18,0.24925417329049998,-1.1419153747000002,9.9017966082
1.7176722654464955e+18,0.02807411958250002,-1.6431330872,10.833107436899999
1.7176722656464955e+18,-0.338730606116,-1.7018335189999998,9.7974560857
1.7176722658464955e+18,-0.88278923034,-1.6191305007549999,9.590586273150002
1.7176722660464955e+18,-0.4172218563864737,-2.067650299,9.66911140031579
1.7176722662464955e+18,-0.26368416594749994,-2.1370459899500003,9.6146786728
1.7176722664464955e+18,-0.24281755829249999,-1.9449504548,9.636623039249999
1.7176722666464955e+18,-0.39567219543500004,-2.02274368295,9.61095890815
1.7176722668464955e+18,-0.39544017791499997,-1.9496731338499995,9.615876182399997
1.7176722670464955e+18,-0.2842513961834999,-1.9011440505500001,9.6200300445
1.7176722672464955e+18,-0.09586814116739999,-2.16455877685,9.5823309403
1.7176722674464955e+18,-0.42938957977500014,-1.8586848450000002,9.659158676250001
1.7176722676464955e+18,-0.6838529205870001,-2.1522618484500002,9.572039840799999
1.7176722678464955e+18,-0.16911083220050002,-1.8890117797999995,9.607239143299998
1.7176722680464955e+18,0.12899425507067502,-1.6818800125,9.684343803400001
1.7176722682464955e+18,0.005074447632200005,-1.8180219041499999,9.6068125305
1.7176722684464955e+18,-0.8347616042950001,-1.8641784210499999,9.60014389785
1.7176722686464955e+18,-0.83425266265,-2.06734343715,9.57490637965
1.7176722688464955e+18,-0.15883470154249998,-2.06366109465,9.62768662265
1.7176722690464955e+18,-0.5232144699110001,-2.07636966705,9.58136544795
1.7176722692464955e+18,-0.47719267272500004,-2.1868025207499997,9.595039512650002
1.7176722694464955e+18,-0.39970630645,-2.3899001770499995,9.494493598949997
1.7176722696464955e+18,0.07010159141621053,-2.573771498842105,9.501215804210524
1.7176722698464955e+18,0.0044008483834000025,-2.82370557415,9.43720772555
1.7176722700464955e+18,-0.1932406539875,-2.7280245437499997,9.42507545465
1.7176722702464955e+18,-0.06055657196055001,-2.7825860824500004,9.4278297273
1.7176722704464955e+18,-0.20246147919500004,-2.6263559646,9.44077031705
1.7176722706464955e+18,-0.18549426270499997,-2.6075176391499997,9.47593219755
1.7176722708464955e+18,-0.07095993805565,-2.42414147175,9.505540626599998
1.7176722710464955e+18,-0.13613440704200003,-2.4062387009000004,9.491679451000001
1.7176722712464955e+18,-0.0617391128555,-2.3260429687,9.5330758666
1.7176722714464955e+18,-0.31988479615499993,-2.3304587859499994,9.52931867975
1.7176722716464955e+18,-0.257651710515,-2.3931933288500002,9.52262759405
1.7176722718464955e+18,-0.32844699096500013,-2.45495489505,9.5066034164
1.7176722720464955e+18,-0.35584002685,-2.5799674302,9.469360862650001
1.7176722722464955e+18,-0.32177087401999993,-2.6640401001,9.45004353345
1.7176722724464955e+18,-0.29243936920499997,-2.7182573547500004,9.442020217849999
1.7176722726464955e+18,-0.199737144475,-2.7198590240000002,9.43154949185
1.7176722728464955e+18,-0.43659709168000005,-2.6473647765,9.49094597625
1.7176722730464955e+18,-0.42754092407,-2.5315805513,9.4552601852
1.7176722732464955e+18,-0.15993845889315791,-2.5428883522105266,9.480598152631579
1.7176722734464955e+18,-0.3651656341550001,-2.5092694474,9.51641551215
1.7176722736464955e+18,-0.3655697937149999,-2.3670202561,9.52056937415
1.7176722738464955e+18,-0.44648403167,-2.1333935852,9.56539366155
1.7176722740464955e+18,-0.52501821901,-2.0738324433499997,9.580751724199999
1.7176722742464955e+18,-0.36687956999999993,-2.0728145599,9.5729978485
1.7176722744464955e+18,-0.46238845825999997,-2.0339478837000002,9.595017059349999
1.7176722746464955e+18,-0.453534370415,-2.0812270660000003,9.596843261850001
1.7176722748464955e+18,-0.42516087341,-2.1250559235,9.5743974382
1.7176722750464955e+18,-0.4902305602900001,-2.1281395111500006,9.56887392415
1.7176722752464955e+18,-0.560067832945,-2.20814064785,9.549796096850002
1.7176722754464955e+18,-0.38368212890000003,-2.4635320587999994,9.513114875849999
1.7176722756464955e+18,-0.465576828005,-2.4483611068999993,9.526212638799999
1.7176722758464955e+18,-0.48097231293,-2.37572465505,9.512478698750003
1.7176722760464955e+18,-0.43392514801000004,-2.3365810547000003,9.525733635
1.7176722762464955e+18,-0.46062213134999996,-2.312660797,9.538524536199999
1.7176722764464955e+18,-0.470396804815,-2.273045677,9.547475921699998
1.7176722766464955e+18,-0.45179798126500004,-2.2096525039999997,9.56870178225
1.7176722768464955e+18,-0.4961629606578947,-2.196477139210526,9.567685474684211
1.7176722770464955e+18,-0.393890899655,-2.146453926,9.5533437194
1.7176722772464955e+18,-0.43074426269500005,-2.0767663422,9.551412735000001
1.7176722774464955e+18,-0.4304448852699999,-2.1581071931,9.595361343499999
1.7176722776464955e+18,-0.47871201324,-2.1609288253,9.571343787999998
1.7176722778464955e+18,-0.457748107905,-2.1506826325,9.576133827199998
1.7176722780464955e+18,-0.4359534301700001,-2.1448298034,9.5546460113
1.7176722782464955e+18,-0.41330552674000004,-2.201636673,9.5736190567
1.7176722784464955e+18,-0.4690570907650001,-2.2047277449500005,9.56418866725
1.7176722786464955e+18,-0.51992131804,-2.2660028229500004,9.53591246785
1.7176722788464955e+18,-0.44170147705499996,-2.3040462112499998,9.54749837495
1.7176722790464955e+18,-0.49887508392499996,-2.3061268845000003,9.53819522085
1.7176722792464955e+18,-0.47705046845,-2.3408322144000007,9.526190185599999
1.7176722794464955e+18,-0.492483375545,-2.3448214186999996,9.527941543599999
1.7176722796464955e+18,-0.5136792984,-2.3295082627,9.546817291250001
1.7176722798464955e+18,-0.46402006532,-2.3249951477,9.54257361605
1.7176722800464955e+18,-0.45598178101500003,-2.29088857275,9.531167335549998
1.7176722802464955e+18,-0.4962732576052632,-2.225540386,9.552425103421053
1.7176722804464955e+18,-0.47377976989500004,-2.2757999496,9.552617729249999
1.7176722806464955e+18,-0.4855677566549999,-2.2375020903999996,9.534804771400001
1.7176722808464955e+18,-0.47446085357499995,-2.2515952835500004,9.526265029900001
1.7176722810464955e+18,-0.46321174621999994,-2.2933434677499998,9.526429687550001
1.7176722812464955e+18,-0.48740144347500003,-2.3296130448,9.53388418575
1.7176722814464955e+18,-0.45680506897499995,-2.3343506927499997,9.5364887696
1.7176722816464955e+18,-0.45599674987,-2.33375942235,9.5173136443
1.7176722818464955e+18,-0.5396802291799999,-2.3822735367,9.534348220799997
1.7176722820464955e+18,-0.5069507904,-2.40124658205,9.50726953125
1.7176722822464955e+18,-0.49854576873499995,-2.3969430312,9.5126583252
1.7176722824464955e+18,-0.525961257925,-2.4332350616500005,9.524768142700001
1.7176722826464955e+18,-0.5067561950649999,-2.35492540735,9.524408889750001
1.7176722828464955e+18,-0.5388045501800001,-2.3418575820499994,9.520412200900001
1.7176722830464955e+18,-0.5365816726799999,-2.2589000931499994,9.535702903749998
1.7176722832464955e+18,-0.583568962105,-2.2657633208499997,9.53452036285
1.7176722834464955e+18,-0.573562271115,-2.22423218535,9.51985835265
1.7176722836464955e+18,-0.594316612245,-2.2974599075999995,9.557512550249998
1.7176722838464955e+18,-0.560221854763158,-2.2927033514210526,9.527813126421053
1.7176722840464955e+18,-0.468667900095,-2.2736818542500004,9.547932472200001
1.7176722842464955e+18,-0.6046601028399999,-2.30150150305,9.5267140961
1.7176722844464955e+18,-0.51835707093,-2.27993135835,9.53416111
1.7176722846464955e+18,-0.5381234664850002,-2.3145842972,9.52279973605
1.7176722848464955e+18,-0.52974838257,-2.3121294022,9.5247382049
1.7176722850464955e+18,-0.55217923736,-2.3750585403000004,9.53108500675
1.7176722852464955e+18,-0.5186115417449998,-2.3642659835999997,9.51617601015
1.7176722854464955e+18,-0.5097275161849999,-2.3519166641,9.51457434085
1.7176722856464955e+18,-0.6346053314200001,-2.4163127518499996,9.527619712749999
1.7176722858464955e+18,-0.4955295410150001,-2.3574102401000006,9.5245885163
1.7176722860464955e+18,-0.53520453644,-2.3343132706,9.5309428024
1.7176722862464955e+18,-0.5911432113650001,-2.2774914322,9.53058354955
1.7176722864464955e+18,-0.5314623184250001,-2.22379808815,9.5607158889
1.7176722866464955e+18,-0.50689839935,-2.2171219711,9.54851625815
1.7176722868464955e+18,-0.5241949310299999,-2.1503383484000005,9.549287155300002
1.7176722870464955e+18,-0.485425552375,-2.1587059478499997,9.556853919949999
1.7176722872464955e+18,-0.526792030335,-2.19512521365,9.5513753129
1.7176722874464955e+18,-0.5169460577789473,-2.195129940578947,9.564589281526315
1.7176722876464955e+18,-0.53260743714,-2.2504127425999996,9.548808151249997
1.7176722878464955e+18,-0.529673538215,-2.2394704971,9.541959892349999
1.7176722880464955e+18,-0.523004905705,-2.2953492966000004,9.54321727765
1.7176722882464955e+18,-0.546041999805,-2.3554418335500005,9.52446128065
1.7176722884464955e+18,-0.53774924469,-2.3225252839,9.524079574449999
1.7176722886464955e+18,-0.5230647811900001,-2.3956182861,9.51999307255
1.7176722888464955e+18,-0.49941396333000004,-2.3505994033,9.5142749633
1.7176722890464955e+18,-0.51604438018,-2.39790852345,9.5116105042
1.7176722892464955e+18,-0.53383488464,-2.42814564505,9.53669084945
1.7176722894464955e+18,-0.52852093505,-2.30884373475,9.52833073425
1.7176722896464955e+18,-0.519524642945,-2.2741533737,9.534714958250003
1.7176722898464955e+18,-0.520856872555,-2.22343883515,9.550252647400002
1.7176722900464955e+18,-0.5267845459049999,-2.2173315352500005,9.53147419735
1.7176722902464955e+18,-0.5869070205699999,-2.1670211561999997,9.556000694249999
1.7176722904464955e+18,-0.482701217645,-2.3527998275999997,9.50729946905
1.7176722906464955e+18,-0.496554908755,-2.3191872254000003,9.5481794586
1.7176722908464955e+18,-0.5725967788750002,-2.30991400905,9.53595737455
1.7176722910464955e+18,-0.7347589031105263,-2.0996836853684213,9.612395132000001
1.7176722912464955e+18,-0.31332094574094993,-2.1156030808,9.5899800338
1.7176722914464955e+18,-0.182837287906,-2.032443512,9.600218742349998
1.7176722916464955e+18,0.2807486801155,-2.1369561767499996,9.5663367004
1.7176722918464955e+18,-0.24081921386975003,-1.9160680159999999,9.631002227749999
1.7176722920464955e+18,0.02148033138050002,-2.0798948364000003,9.5689487686
1.7176722922464955e+18,0.26850414275449996,-1.9370693437,9.58091638185
1.7176722924464955e+18,0.21235590363085005,-2.1423823929,9.586342598049999
1.7176722926464955e+18,-0.021427940377340002,-2.1783974991,9.576403266949999
1.7176722928464955e+18,-0.0583636322015,-2.2173240509,9.59848983765
1.7176722930464955e+18,0.020769309999150005,-2.2200708390500004,9.56653129575
1.7176722932464955e+18,-0.03072360992,-2.2392983551000003,9.579905982899998
1.7176722934464955e+18,-0.22506447601199997,-2.2979314269999995,9.5672872238
1.7176722936464955e+18,-0.187530029308,-2.2530397796000003,9.5527299957
1.7176722938464955e+18,-0.08058492279599999,-2.1781130906,9.575422805750001
1.7176722940464955e+18,-0.2178270263645,-2.1416863404499997,9.5757745743
1.7176722942464955e+18,0.13554313659199999,-2.06553220365,9.538749069200001
1.7176722944464955e+18,-0.003083587639499999,-2.27969185645,9.57163568125
1.7176722946464955e+18,-0.26621745059342106,-2.1800271364736843,9.57656437931579
1.7176722948464955e+18,-0.168489624033,-2.07134761045,9.60784538265
1.7176722950464955e+18,-0.08133336639399999,-2.3269485855,9.5974869231
1.7176722952464955e+18,-0.24388783264449998,-2.3532339248000005,9.703967994500001
1.7176722954464955e+18,0.05649252319260001,-1.4653702468835,10.301181082900001
1.7176722956464955e+18,0.652889808592,-0.12704081725950006,11.137432091500001
1.7176722958464955e+18,-0.5666017456468999,0.6586303710600001,10.19968464655
1.7176722960464955e+18,1.4134581986499997,1.7240323563350004,10.1746791458
1.7176722962464955e+18,-2.8641065597435,0.6220165100700001,6.184396980300002
1.7176722964464955e+18,1.61798538206745,0.3493659896140001,8.314856666599999
1.7176722966464955e+18,-1.0717188491815002,-1.5252008285299998,9.58403739165
1.7176722968464955e+18,-0.5398224334949999,-2.93021658315,9.768311690749998
1.7176722970464955e+18,-0.5035603409021,-3.4286650541999997,10.20740110065
1.7176722972464955e+18,-0.3958143997235,-3.5633998718499997,10.9681042095
1.7176722974464955e+18,-0.5833070068195001,-2.6763669662000003,9.74133029935
1.7176722976464955e+18,-0.6584582291004499,-0.6370751953509999,10.059299080250002
1.7176722978464955e+18,-0.6260655899080001,0.4784500580495,7.3955433884
1.7176722980464955e+18,-0.49772287470873683,-0.3387061831775158,7.817871599684209
1.7176722982464955e+18,-0.020237915042,-2.28204945375,10.3175420613
1.7176722984464955e+18,-0.20951181792550005,-3.0632898558499995,11.257504898499999
1.7176722986464955e+18,-0.34396222687899997,-2.9556636658,10.7430397341
1.7176722988464955e+18,-0.031756462117499995,-1.8868637467349998,9.71799382825
1.7176722990464955e+18,-0.5490731963797499,-0.31068642425549997,9.581110976949997
1.7176722992464955e+18,-1.86478466035,0.6273304596295002,7.822350837649999
1.7176722994464955e+18,-0.8520506515599999,-0.18332377624435,8.179538063
1.7176722996464955e+18,-0.121449943525,-1.8685643006,9.968670044149999
1.7176722998464955e+18,-0.77728861995,-2.7189683762,11.266591003999999
1.7176723000464955e+18,-0.39801482391450005,-2.7301501236499996,10.587393402500002
1.7176723002464955e+18,-0.11910731505809999,-2.08891358185,9.527986449900002
1.7176723004464955e+18,0.08619824981799999,-0.419884346014,9.386193809549999
1.7176723006464955e+18,0.95629387664,0.191624015811,10.53810839025
1.7176723008464955e+18,0.3716471557665,0.6907011795577499,9.333825210499999
1.7176723010464955e+18,-0.10450518036159998,0.4108656005805001,6.872276527399999
1.7176723012464955e+18,-0.0545390853913,-1.588683815051,9.703653647950002
1.7176723014464955e+18,0.0451685714705,-2.7097176131500005,10.797414161500003
1.7176723016464955e+18,-0.5000075972684211,-3.2450545057894735,11.063698183684211
1.7176723018464955e+18,-0.34789155578514996,-2.79154495245,9.54954162625
1.7176723020464955e+18,-0.3916979599145499,-0.7793543243457999,9.689747566149999
1.7176723022464955e+18,-0.04725672912300002,-0.2078502731345,10.099617736500003
1.7176723024464955e+18,0.050160690311050006,-0.1106723556517,9.6841941145
1.7176723026464955e+18,0.17907261658200002,0.786247489925,7.476764488250001
1.7176723028464955e+18,0.0450787582366,-0.350795516993,8.73247322835
1.7176723030464955e+18,-0.295141250604,-1.9895876313000003,10.3920271695
1.7176723032464955e+18,0.151507438655,-2.9362714919,10.479737274000001
1.7176723034464955e+18,-0.3100427627725001,-3.317670867849999,10.82576520435
1.7176723036464955e+18,-0.784406318685,-2.5968672866999998,9.3799966964
1.7176723038464955e+18,-0.48847920229950004,-0.8332048415800001,9.600577995300002
1.7176723040464955e+18,-0.9765916671147101,-0.0450338516185,9.818936416149999
1.7176723042464955e+18,-0.8914562073079999,0.35634148406849997,9.985315430450001
1.7176723044464955e+18,-1.3390030287799997,0.4786745911160001,7.880721954350001
1.7176723046464955e+18,-0.352576812735,1.1951970748050003,10.29979646295
1.7176723048464955e+18,-0.762162574785,1.89172863011275,11.678766379599999
1.7176723050464955e+18,-1.2433818740195002,-0.05980812836999998,9.4245665131
1.7176723052464955e+18,-5.029730095747369,1.7693915838831575,7.076408217684211
1.7176723054464955e+18,-1.427992973345,2.3280338287349998,9.2248967285
1.7176723056464955e+18,-1.6927025071,2.04662651825,9.67765271785
1.7176723058464955e+18,-1.2942386170250002,1.8517318039499997,9.3687924956
1.7176723060464955e+18,-1.7180747451999998,1.8343379746,9.499186340249999
1.7176723062464955e+18,-2.2555171280499997,1.96604159545,9.71565119935
1.7176723064464955e+18,-1.9106417997500003,1.99763339995,9.579786231999998
1.7176723066464955e+18,-2.226731987,1.8717676392499996,9.583543418849999
1.7176723068464955e+18,-0.36140096283464995,1.61782072445,9.476665672200003
1.7176723070464955e+18,0.9756186905299999,2.46371916955,8.859207183899999
1.7176723072464955e+18,-1.1848011933765001,3.8157376326999994,9.20734572605
1.7176723074464955e+18,-0.9710980911810001,2.3076686782749998,9.73912987535
1.7176723076464955e+18,-0.28388465881400005,2.5868680801500004,9.393348930299998
1.7176723078464955e+18,-0.20696710967100004,2.78794493855,9.2767489014
1.7176723080464955e+18,-0.205821990963,2.8981008682500002,9.4406805038
1.7176723082464955e+18,0.250870811466,4.23525524145,8.8974301987
1.7176723084464955e+18,0.6636224899350001,4.343944221449999,8.773053840649998
1.7176723086464955e+18,0.56404206848,4.41621393585,8.683307968049998
1.7176723088464955e+18,0.4558336679473684,4.610704096842105,8.675241321684211
1.7176723090464955e+18,0.547269447328,5.2610046844500005,8.6360736924
1.7176723092464955e+18,0.24067700956420005,6.62118866735,7.60954586795
1.7176723094464955e+18,-2.159529235785,8.568077590200001,5.999613739
1.7176723096464955e+18,-1.6000900955969999,6.3525647735,1.0637329557750002
1.7176723098464955e+18,2.5548870849550003,6.9037485809,-3.8767357863950003
1.7176723100464955e+18,13.156321288250002,6.55367156975,3.8362898942457
1.7176723102464955e+18,11.7489853602,3.7443435974300003,7.2559212340500014
1.7176723104464955e+18,4.7981447067,2.6737399292000004,8.06218210605
1.7176723106464955e+18,-0.305357505735,3.09971660603,9.09899354545
1.7176723108464955e+18,0.6063291321400001,3.14878456875,8.0078600694
1.7176723110464955e+18,-0.195994926465,4.28520636745,8.483765419049998
1.7176723112464955e+18,-1.4472803649050001,4.27907661435,8.595246093699998
1.7176723114464955e+18,-1.7917814712999998,4.51534529105,8.584850212150002
1.7176723116464955e+18,-2.304035204705882,4.381934778588236,8.296735085823528
1.7176723118464955e+18,,,
