Timestamps,Gyro_X,Gyro_Y,Gyro_Z
1.7176722084527624e+18,-0.0169744117125,-0.25561559661219996,-0.4246883004960001
1.7176722086527624e+18,-0.3046646591345,-0.5004881158679,-0.679970394096
1.7176722088527624e+18,-0.31158122908950003,-0.7367728471650001,-1.0510827631250002
1.7176722090527624e+18,-0.31457962132899997,-0.089098679092,-0.39759328589
1.7176722092527624e+18,-0.06381153207800003,-0.82124806353625,-0.949378651011
1.7176722094527624e+18,-1.2930081061599998,-2.764791774745,-3.4452693134750008
1.7176722096527624e+18,-2.497244465375,-4.0056619406500005,-6.81907541765
1.7176722098527624e+18,0.5419490320395001,-3.53902271985,-2.93468894365
1.7176722100527624e+18,1.20824954816295,-1.7957427502500003,0.03465517315550002
1.7176722102527624e+18,-0.9054979548400001,-1.3838996988845003,0.024269231922500013
1.7176722104527624e+18,-1.134303149625,-1.3506145658190003,-0.16133279949
1.7176722106527624e+18,-1.390594306615,-0.30854607890450003,0.07242020834499999
1.7176722108527624e+18,-0.10681117743000001,0.1680614144023,0.342439679607
1.7176722110527624e+18,-0.3244004540624,0.026596508378150002,0.04070085357205001
1.7176722112527624e+18,-0.31097596436999997,0.0778348425365,0.03193466251145
1.7176722114527624e+18,-0.365568779415,-0.12373892130229998,-0.1057668962347
1.7176722116527624e+18,-0.686900806445,-0.167086685636,-0.13043637592149998
1.7176722118527624e+18,-1.17257636795,0.42383167447000003,0.0818392426705
1.7176722120527624e+18,-0.7039937063157895,-0.4849992618894737,0.2190829445926316
1.7176722122527624e+18,-0.06840195953900001,-0.37780800462450004,0.27018798234095
1.7176722124527624e+18,-0.2323723248193,-0.334063686247,-0.18203037613425
1.7176722126527624e+18,-1.1150954694150002,-0.6581493746395,-0.43967967331999996
1.7176722128527624e+18,-0.46344680670500005,0.9515243262449997,0.3343430906645
1.7176722130527624e+18,0.1356792117542,-0.21532155539958003,-0.08840730665389998
1.7176722132527624e+18,0.013639770774500001,0.05277715892900001,-0.047943678863500004
1.7176722134527624e+18,-0.279865677644,0.074186935229,0.009325800418249996
1.7176722136527624e+18,-0.43449430762999997,0.00480258832715,0.08588051125370001
1.7176722138527624e+18,-0.06821557104405002,0.006766020717099995,-0.004388078484599999
1.7176722140527624e+18,-0.026094882097599997,-0.0382121518725,-0.03302649271154999
1.7176722142527624e+18,0.021999719312980004,-0.02294795601555,-0.0023685158223999995
1.7176722144527624e+18,0.0277845269191,-0.005814445909470001,0.01607219916735
1.7176722146527624e+18,0.015545391098989999,-0.00897280943395,-0.00805651936682
1.7176722148527624e+18,0.018519989535600002,0.001340799599885,0.0004371349241150004
1.7176722150527624e+18,0.013848713167829999,-0.00412500609467,-0.005758620799349999
1.7176722152527624e+18,0.08354395814315,0.05302387228000001,0.040534091792
1.7176722154527624e+18,0.01041740569055,-0.029504215575999998,-0.004897493404
1.7176722156527624e+18,0.26874488161,-0.0049618111155789475,-0.0341261329747
1.7176722158527624e+18,0.2782263665275,-0.15472061297714998,-0.1824775023385
1.7176722160527624e+18,0.10511182294259999,0.305736192315,0.291219667344
1.7176722162527624e+18,-0.039990201597500004,0.60914774056,-0.244111457625
1.7176722164527624e+18,-0.12429980905351998,0.6547764808054499,0.507256506219
1.7176722166527624e+18,-0.3378562875000001,-0.5075369700749999,-0.33137366827750003
1.7176722168527624e+18,-0.809480166445,-0.09002153514514999,-0.03407087283899999
1.7176722170527624e+18,-0.6313535392300001,-0.21630859486850001,-0.06724524917000001
1.7176722172527624e+18,-0.032246855086649984,-0.24002160207549994,-0.12333814163100003
1.7176722174527624e+18,0.10689452254000001,0.012410524285200005,0.018479051434999998
1.7176722176527624e+18,0.11487398203299999,0.11496878317229997,0.07304333415544999
1.7176722178527624e+18,0.4889021679700001,0.332678060995,0.22417418695999997
1.7176722180527624e+18,0.49964467883,-0.04480644873800001,-0.039836449083
1.7176722182527624e+18,-0.30898893457149995,0.006465406334499993,-0.118899909224
1.7176722184527624e+18,-0.5343311771599999,0.07733580225695,0.048423575753
1.7176722186527624e+18,-0.29468714408499996,-0.19729636535050002,-0.1339756413854
1.7176722188527624e+18,-0.009767101146500002,-0.07742303153189,-0.033684532160100006
1.7176722190527624e+18,0.18278013253895004,-0.019015978665055,0.053532860005999994
1.7176722192527624e+18,0.507069920231579,0.03850869192357895,0.060487789737368416
1.7176722194527624e+18,0.4477670259799999,-0.0454935986095,-0.012476508225150002
1.7176722196527624e+18,-0.22409775401900003,0.05784518912065001,-0.06012364675135
1.7176722198527624e+18,-0.5676632449,0.1140165618898,0.0653695153095
1.7176722200527624e+18,-0.27562380284500004,0.002181206274850009,0.01538615885575
1.7176722202527624e+18,0.016926355200199993,-0.12620403022149998,-0.10940431673450002
1.7176722204527624e+18,0.27397263869800004,0.0459518290793,0.07005469722435001
1.7176722206527624e+18,0.43370363712,0.018144630734600004,0.052427120785500006
1.7176722208527624e+18,0.45260346532,-0.057236765139,0.00042376846482999956
1.7176722210527624e+18,-0.28262031557839995,0.06713408538949998,-0.062281921599750004
1.7176722212527624e+18,-0.5337283134399999,-0.02110154930814,-0.018344036488400006
1.7176722214527624e+18,-0.29870203435,0.010187432520649999,0.03926908366805999
1.7176722216527624e+18,-0.008136823010999994,-0.10352388878852,-0.055177791044999994
1.7176722218527624e+18,0.26776346917849997,-0.0324177007283,0.03262439938245
1.7176722220527624e+18,0.49801235198500005,-0.0406159135603,0.06672498807385
1.7176722222527624e+18,0.41075635999500004,-0.13325715790700002,-0.04577467273995
1.7176722224527624e+18,-0.17221784377449997,0.138221876415,-0.018261475328499997
1.7176722226527624e+18,-0.5490967989,0.0497833464695,-0.0649179486605
1.7176722228527624e+18,-0.3243246313736843,-0.08335475124273685,-0.09415820402263159
1.7176722230527624e+18,-0.165106385385,0.076048259067,0.04573357663224999
1.7176722232527624e+18,0.10833987686890001,0.007532052196645001,0.0012964131730000025
1.7176722234527624e+18,0.488030065595,0.13008859964064998,0.047607005271150006
1.7176722236527624e+18,0.503009991345,0.081741292025,0.11376251942504997
1.7176722238527624e+18,0.474358655515,-0.26921393833400004,-0.18592238094145
1.7176722240527624e+18,0.27942591830999997,-0.0897540071785,0.020584377086049994
1.7176722242527624e+18,0.32300457769,-0.07700837413050002,-0.0313106048825
1.7176722244527624e+18,-0.23806953568727005,0.085092452357,0.028049306748550003
1.7176722246527624e+18,-0.30136872009000004,0.21510385646299998,0.011517418966750001
1.7176722248527624e+18,-0.2553817730365,-0.0006398154454999916,0.0012067934993050034
1.7176722250527624e+18,-0.194729314376,-0.11356522380044998,-0.14673938658200003
1.7176722252527624e+18,-0.20619336962499996,0.040491985529499994,-0.05509078554125
1.7176722254527624e+18,-0.18449503854,-0.17509969641150003,-0.190007228408
1.7176722256527624e+18,0.0596386445702,0.10742415788035001,-0.1326893691
1.7176722258527624e+18,0.0520143537738,0.19984183283795,0.20446688866900004
1.7176722260527624e+18,-0.12816900303105,0.435090740035,0.40497477055
1.7176722262527624e+18,-0.04681663207464999,0.19426952583989998,0.34766898453
1.7176722264527624e+18,0.05625269856263158,-0.046343260642368427,0.17569299806263158
1.7176722266527624e+18,-0.0506700006335,-0.03880410339335,-0.10029407181349999
1.7176722268527624e+18,-0.0191257684903,-0.36632402987,-0.21518004834
1.7176722270527624e+18,-0.08877403317174999,-0.0654454914321,-0.10184378414550002
1.7176722272527624e+18,-0.06363001139600001,0.005627963945447,-0.00201379787165
1.7176722274527624e+18,0.010884497523300002,-0.04721006140780001,-0.00031623099912000025
1.7176722276527624e+18,0.004982507246575001,0.01271776782248,0.004210279044130001
1.7176722278527624e+18,-0.00324806249095,0.017379630176949996,3.9008154999999655e-05
1.7176722280527624e+18,0.00424531110295,0.006637395511109999,-0.00106120521636
1.7176722282527624e+18,0.0014127164204435,0.0007905090459699998,-0.0024915651651359998
1.7176722284527624e+18,-0.0075042776585499986,0.0019449912388700002,0.002955710596955
1.7176722286527624e+18,-0.0128466207187,-0.00612926192729,0.002712331013975
1.7176722288527624e+18,0.004728733861454999,0.001142166298525,-0.001378675596535
1.7176722290527624e+18,0.00375898623625,-0.0033895982778499997,0.0005803732662500003
1.7176722292527624e+18,0.005709950962935,-0.02280339729135,-0.009554207371745001
1.7176722294527624e+18,-0.0002583257738700002,-0.008590929471979999,-0.0044411598706
1.7176722296527624e+18,-0.000672509823985,-0.003955037302605,-0.0008842034966200004
1.7176722298527624e+18,-0.008986938395749999,-0.0008214515107800001,-0.0024802943808685
1.7176722300527624e+18,-0.0061443983637053156,0.011530708472842105,0.0011426630484210525
1.7176722302527624e+18,-0.005929661469479999,0.007402071334248502,0.0036743843463650006
1.7176722304527624e+18,0.0003143229260600001,-0.004222897239135,-0.0052669378113000005
1.7176722306527624e+18,0.001222450024195,0.007946503290050002,0.0014932926860499996
1.7176722308527624e+18,-0.0012070149941205,5.324976228000028e-05,-0.0012196751079099999
1.7176722310527624e+18,-0.0007516864337950001,0.00042777103954999985,-0.0032032836229500005
1.7176722312527624e+18,0.006228904093759999,0.001926313515355,0.0014534969813900004
1.7176722314527624e+18,0.0109610356624,-0.01026714637425,-0.002339302608715
1.7176722316527624e+18,0.004799841300785,-0.005996983614211,-0.003424010612
1.7176722318527624e+18,0.014295564079000001,-0.002460632479145,-0.0019583757967950007
1.7176722320527624e+18,0.0131093723927,-0.00864431841215,-0.0049998030647265
1.7176722322527624e+18,0.006804902674244999,-0.005237202023334501,-0.0018355699728499993
1.7176722324527624e+18,-0.00776135564928,0.01081856836894,0.002889084652955
1.7176722326527624e+18,-0.022312208172499997,0.03294128307625001,0.012308391276744999
1.7176722328527624e+18,-0.013953957961749997,0.01909743464825,0.005116387805065
1.7176722330527624e+18,-0.011909129912800001,-0.00254026970519,6.899442525999994e-05
1.7176722332527624e+18,-0.009154118131899999,0.0002498960922400001,0.001434420398463
1.7176722334527624e+18,-0.003845394827685,0.0030772903847050004,0.0020646992140199998
1.7176722336527624e+18,-0.0009848975060868421,-0.001239396415936842,-0.0010748227175789477
1.7176722338527624e+18,-0.0017248321150029999,-0.007206982420700001,-0.00136937735365
1.7176722340527624e+18,-0.0013261013577049996,-0.0029726864945250004,-0.001333937887015
1.7176722342527624e+18,-0.0023003913463800004,-0.00786528318041,-0.00023428145799000004
1.7176722344527624e+18,0.003842728346380001,-0.005738528567830001,-0.005686188268049999
1.7176722346527624e+18,0.0007817855687099999,0.0024428185702450003,0.0004621017376149998
1.7176722348527624e+18,0.00042017349623999986,-0.0003197067359049999,-0.00120998357885
1.7176722350527624e+18,0.005253926611895,-0.0020717526667599997,0.0006049203802949999
1.7176722352527624e+18,0.009296095941900001,-0.0021816651496499996,-0.0016402482054699997
1.7176722354527624e+18,-0.00240423430819,-0.01990810586115,-0.0029823529532499995
1.7176722356527624e+18,0.01445337305645,-0.01673234356565,-0.00835251970005
1.7176722358527624e+18,0.013041634089400001,-0.005902118677930999,-0.007664920109725001
1.7176722360527624e+18,0.014181049468454998,0.0006272542501250001,0.0021951482518550005
1.7176722362527624e+18,0.011412149627335,0.001244169363125,0.0012065572431535
1.7176722364527624e+18,-0.0131249773774,0.0189755213445,0.000166525947925
1.7176722366527624e+18,-0.01190648572545,0.0138152293161,0.0005557861176699998
1.7176722368527624e+18,-0.010222615836999998,0.0149561166298,0.0020097242203300004
1.7176722370527624e+18,-0.0014337545903,0.0048992542431488505,0.0050535326123799995
1.7176722372527624e+18,-0.002363515650157895,-0.006774357328610525,-0.006688262850678947
1.7176722374527624e+18,-0.0005620112065000002,0.010001777228050002,0.0037645458008100006
1.7176722376527624e+18,-0.009743939758655,0.0035332796018200004,-0.0026140520466049998
1.7176722378527624e+18,-0.00394081348202,0.0030145154626100004,0.0013286140747400003
1.7176722380527624e+18,-0.005912223784560001,-0.00147703309792,-0.00284821228101
1.7176722382527624e+18,-0.005721236095814999,-0.000122341197895,0.0009044965496274998
1.7176722384527624e+18,-0.015822551609199997,0.007860298591255001,-0.003782971878745
1.7176722386527624e+18,-0.0082994258154,0.010912312404449998,0.002182288281795
1.7176722388527624e+18,-0.0004663700354049999,0.0029016458270105005,0.0031181829750600003
1.7176722390527624e+18,0.003160756666375,-0.00549634225905,0.0006520245689549998
1.7176722392527624e+18,-0.0003553223591653499,-0.0052375141939,0.0022182074375885
1.7176722394527624e+18,0.00271399229828,-0.008109002234049999,-0.00047766452203475027
1.7176722396527624e+18,0.009127260663749998,-0.004825469954903501,0.00018424690928499997
1.7176722398527624e+18,0.0051849191716,-0.008421546042755,-0.0028340524643300003
1.7176722400527624e+18,0.005650543718145,-0.0101163030598,-0.00098075584981
1.7176722402527624e+18,-0.0020614958426449998,-0.003484864305850001,-0.0009098083016799996
1.7176722404527624e+18,-0.00960983320872,0.00684568160235,0.0020176796822470003
1.7176722406527624e+18,-0.0089755745604,0.008341105852150001,0.00217642546609
1.7176722408527624e+18,-0.013974519643105263,-0.0022571075887526317,0.0037810281408894733
1.7176722410527624e+18,-0.007701854003740001,-0.00850632513184,-0.001687350426815
1.7176722412527624e+18,-0.004311323445304999,0.01048357053645,0.004583594412585
1.7176722414527624e+18,-0.00313264442377,0.0040146025843665,-0.0020315341419435
1.7176722416527624e+18,-0.0009555848839035,-0.0028411406471,-0.0027320377877999994
1.7176722418527624e+18,-0.004152796315469999,-0.0002839419584449999,-0.00131417079827
1.7176722420527624e+18,-0.002793289642425,0.0008395982238544999,0.0028840095153
1.7176722422527624e+18,-0.000669074337933,0.0014688956550849997,0.0018054307438900002
1.7176722424527624e+18,0.00284493633663,0.00027335652124000004,-0.00045949576898499995
1.7176722426527624e+18,0.0051385125788250005,0.0052967292541,-0.0014099541349150001
1.7176722428527624e+18,0.006372936360999999,0.00646848336634,0.005409640306779999
1.7176722430527624e+18,0.0166730168506,-0.01142336302465,-0.0029659319669704995
1.7176722432527624e+18,0.00931863221425,0.0010246111940350004,0.000551219517605
1.7176722434527624e+18,0.007925516867000002,-0.0061272622472250005,-0.004793642135465
1.7176722436527624e+18,-0.000726115042742,0.0002249567014249998,0.0008439870664749997
1.7176722438527624e+18,-0.0037156199745069993,0.012136094341600002,0.0029393431030999995
1.7176722440527624e+18,-0.003998688468954999,0.02016759603215,0.00761833828885
1.7176722442527624e+18,-0.0059022232307,0.00291230981099,-0.0015567780472000002
1.7176722444527624e+18,-0.004484413758521052,-0.0019978190187526315,-0.002052880431510526
1.7176722446527624e+18,-0.008269906673,3.0398547725000134e-05,-7.36399553905001e-05
1.7176722448527624e+18,-0.00818307330138,0.0012340691580880001,-0.000431288813655
1.7176722450527624e+18,-0.00391065210554,0.00608388477715,0.0021666131445599998
1.7176722452527624e+18,0.00126114230315,0.006495059374749999,-0.002636385430025
1.7176722454527624e+18,0.00191746578492,-0.00272575125551,-0.0005869227344965
1.7176722456527624e+18,0.0024374961212849998,-0.005264747106650001,-0.0012198811745900001
1.7176722458527624e+18,0.0035474902776799987,0.0010727616886645,0.0006852084304499998
1.7176722460527624e+18,0.00504728429949,-0.012012002060933998,-0.001172308181385
1.7176722462527624e+18,0.006769048212999999,-0.01081418350835,-0.0062512450387500005
1.7176722464527624e+18,0.02008384464945,-0.002325406070915,0.00079450833135
1.7176722466527624e+18,0.02268273849,-0.010303991602,0.0005380346557100001
1.7176722468527624e+18,0.04186577163699999,-0.010036192461799999,-0.00163306118895
1.7176722470527624e+18,0.05254941321749999,-0.007509824808400001,0.0069272416068849995
1.7176722472527624e+18,0.0418340718365,-0.009035807941150002,0.00278490965741
1.7176722474527624e+18,0.029523242148950003,-0.009854102230445,0.001764057622955
1.7176722476527624e+18,0.0025622215355500006,0.015326069599570002,-0.0032819030225599995
1.7176722478527624e+18,-0.00911789579025,0.00463493958245,0.0036404874524
1.7176722480527624e+18,-0.012183409527526317,-0.000986508328068421,-0.0029691679917842107
1.7176722482527624e+18,-0.053206107579,0.01949457742665,-0.0021671899129000003
1.7176722484527624e+18,-0.051830920577000006,0.00713897063749,-0.003067509062105
1.7176722486527624e+18,-0.037843346407999995,0.0034707332611449994,-0.008919935544835
1.7176722488527624e+18,-0.0314977695225,0.013342455153360003,-0.001199803198605
1.7176722490527624e+18,-0.023355812671999997,0.00793727303335,-0.00279989568545
1.7176722492527624e+18,-0.017551742015949997,0.0034643704069499993,0.00522174605921
1.7176722494527624e+18,-0.00500749457305,0.002415546097925,-0.0023523785170999996
1.7176722496527624e+18,-0.006500671012544999,-0.006111723129034999,-0.00368894350287
1.7176722498527624e+18,0.0007592383773344998,-0.00020989116744499995,0.0028711622347151002
1.7176722500527624e+18,-0.001201335538635,0.0008283117000564999,-0.0005281311228300001
1.7176722502527624e+18,0.00012198997421149992,0.00020012474116500004,0.0046682785963899995
1.7176722504527624e+18,0.000554573527195,-0.0014090846642505,0.0002593872490950001
1.7176722506527624e+18,-0.001903569011019,-0.0032982245553705,0.0025538552319049994
1.7176722508527624e+18,-1.4457426724999856e-05,-0.00584579342975,-0.0006005130474400001
1.7176722510527624e+18,0.0057866134184699995,0.008391074920615,0.0044241695200299995
1.7176722512527624e+18,0.00679620090535,0.0010648278067540002,-0.00150271344465
1.7176722514527624e+18,0.0045109677135,-0.0015987799502649998,0.0009186313370449998
1.7176722516527624e+18,-0.003862059085289474,0.003406844253578947,-0.0023176788210684213
1.7176722518527624e+18,-0.005071638851825001,0.012579957792000001,0.010092961439750001
1.7176722520527624e+18,-0.0017264182446499999,-0.004575542289220001,-0.0029043706134899996
1.7176722522527624e+18,-0.008169784163300001,0.0062259836795599995,0.004359715734576
1.7176722524527624e+18,-0.00326545399434,-0.0012175401308644502,-0.0020919659407649996
1.7176722526527624e+18,0.00014747334062950005,0.005730915036725,0.00495548797775
1.7176722528527624e+18,-0.00039352646858020003,-0.00051596343704,-0.0035256275088899995
1.7176722530527624e+18,0.0002332206906200002,-0.001428221206935,-0.00016071042044999985
1.7176722532527624e+18,0.007302869803699999,-0.0030925950682000004,-0.0036042451043449995
1.7176722534527624e+18,0.023557857192,-0.022289732476775,-0.0078551616631
1.7176722536527624e+18,0.022856717379170003,-0.07772490539101501,-0.050119915791
1.7176722538527624e+18,0.031051468014344996,-0.011189460311764,0.028530449094800004
1.7176722540527624e+18,-0.20318242218715002,-0.07397675775425,-0.1381662141114
1.7176722542527624e+18,-0.19248686581900004,0.012450159432579998,-0.03128379555644999
1.7176722544527624e+18,-0.002745812357875,-0.00594641625095,-0.02043262161245
1.7176722546527624e+18,-0.012806400120699998,-0.002710656058122,-0.0014673028956449998
1.7176722548527624e+18,0.004244481836565001,-0.0139069709632,0.0037554753468500004
1.7176722550527624e+18,0.0406873640155,-0.019507148103785003,0.00893325354025
1.7176722552527624e+18,0.31516192774736845,-0.08780477999263156,0.07039972475471053
1.7176722554527624e+18,0.34188019484,-0.09007645174700002,-0.019862214499900003
1.7176722556527624e+18,0.44473218024000005,-0.19362946357949998,-0.077968302418
1.7176722558527624e+18,0.30071759521499997,-0.13450923936345,-0.031832195068999994
1.7176722560527624e+18,0.0915588929216,-0.06069848464109999,-0.0212664352745
1.7176722562527624e+18,-0.08044332116349999,0.23633658355450002,0.13811975084
1.7176722564527624e+18,-0.28814726025000004,0.15561677422050002,0.059566678986364995
1.7176722566527624e+18,-0.513533729325,0.16686582323099997,-0.0026808695859999996
1.7176722568527624e+18,-0.530305063725,-0.08404283317649999,-0.0280387936155
1.7176722570527624e+18,-0.2107760447226,0.073452451258,0.05817692228505
1.7176722572527624e+18,-0.10388181176384999,-0.0880340108625,-0.11642516599800001
1.7176722574527624e+18,0.024639132351300004,-0.10062610288104998,-0.0147000630805
1.7176722576527624e+18,0.3212466601329999,0.066232242436,0.0706055229982
1.7176722578527624e+18,0.57914651184,0.039331479911950004,0.12089377650449999
1.7176722580527624e+18,0.14850410495499994,-0.08088910347129999,-0.016133168615049997
1.7176722582527624e+18,-0.542613533135,0.07204509428906,-0.003512696642459999
1.7176722584527624e+18,-0.31135654747499997,-0.1600147157965,-0.15070112049400003
1.7176722586527624e+18,-0.16979316189,-0.009561813063189997,-0.038918839061849994
1.7176722588527624e+18,0.07947229849526316,0.07328674221852634,0.025488358085684212
1.7176722590527624e+18,0.217047418054,0.02368110956129999,0.011925915531299998
1.7176722592527624e+18,0.54047074467,0.03154967714875,0.040509842436
1.7176722594527624e+18,0.40647957623000003,0.04597555892750001,0.06668824334644999
1.7176722596527624e+18,-0.3710388693055,0.00254991237665,-0.028859340022509998
1.7176722598527624e+18,-0.46759841143,-0.0805069510363,-0.07027499657849999
1.7176722600527624e+18,-0.2543066583660001,-0.12797882709855,-0.0696309503575
1.7176722602527624e+18,-0.053083330014499996,-0.0216592099433,-0.019078923694250002
1.7176722604527624e+18,0.0759034192723,0.09654780071662,0.08390026463445001
1.7176722606527624e+18,0.351442292325,-0.03528685060112,-0.0341070809175
1.7176722608527624e+18,0.35938160716499995,0.09631852304750001,0.0348569476051
1.7176722610527624e+18,0.23710408303949998,0.1405912193035,0.09426330150949999
1.7176722612527624e+18,-0.5357700377700001,0.0078120706347,-0.06969539696089999
1.7176722614527624e+18,-0.366778969765,-0.042990611434755,-0.008435163457675499
1.7176722616527624e+18,-0.17905610315349998,-0.07996582556150002,-4.8214566499976685e-06
1.7176722618527624e+18,-0.07088398073470001,0.11982001231535,0.01861901059734
1.7176722620527624e+18,0.06346907694970001,0.043513642854500004,0.006566506031399999
1.7176722622527624e+18,0.39270736575,-0.13031737203225002,0.004338376293950001
1.7176722624527624e+18,0.46622637071052636,0.11858000492418949,0.0663826007781579
1.7176722626527624e+18,0.361766388265,0.10565580418100003,0.13064773827750004
1.7176722628527624e+18,-0.29631303968950007,-0.09926908482317001,-0.13244128939155
1.7176722630527624e+18,-0.45611037909999996,-0.05974676404415001,-0.070288680864
1.7176722632527624e+18,-0.25569602214849996,-0.09723715106849999,-0.03536513019435
1.7176722634527624e+18,-0.14062116760864998,-0.1313430792615,-0.07931653922700001
1.7176722636527624e+18,-0.0045686714889999975,0.1048767894545,0.070864019129
1.7176722638527624e+18,0.0376723126614,0.10895686980945,0.038415051973899994
1.7176722640527624e+18,0.56974420399,-0.12393000761295,0.002514872559750002
1.7176722642527624e+18,0.51825425773,-0.12345283599203502,0.032388590297500006
1.7176722644527624e+18,0.308501072605,0.0267578694076,-0.0450634427834
1.7176722646527624e+18,-0.09101417888945,0.07481961897825,-0.020762949507900003
1.7176722648527624e+18,-0.24443934449000002,-0.07799075552850002,-0.07560915406695001
1.7176722650527624e+18,-0.41967051402,0.017887483072650007,0.084719189066
1.7176722652527624e+18,-0.3324316810855,-0.01735550970785,-0.0410979021866
1.7176722654527624e+18,-0.057229182960000013,0.08952526705964998,0.0036591293989500008
1.7176722656527624e+18,-0.06121709899955,0.08739771744449999,0.006239336668100001
1.7176722658527624e+18,-0.14904664717000002,0.027869622552300004,0.04677544661954501
1.7176722660527624e+18,-0.09057866547473685,-0.05207404935452633,-0.06730793127082103
1.7176722662527624e+18,-0.019021281751415,-0.022141207404699995,-0.012135163228700003
1.7176722664527624e+18,0.008622549369099999,0.0018345526761999998,-0.016166092362955
1.7176722666527624e+18,0.0249683789383,0.010132937365985,0.016041465708799996
1.7176722668527624e+18,-0.0065337729691,-0.0202093251976,0.011296379694061002
1.7176722670527624e+18,-0.005839605187199999,0.002182211645220001,0.004028234293625
1.7176722672527624e+18,0.006689509389399999,-0.0024063456631500005,0.011727069714560003
1.7176722674527624e+18,-0.012665974554689995,0.0414122276465,-0.0014308802083
1.7176722676527624e+18,0.04476731174855,-0.0483426167125,0.0328074941845
1.7176722678527624e+18,0.048418596523000006,-0.06958931750698999,-0.003595347571100003
1.7176722680527624e+18,-0.00786393540624,0.0051095756123000005,0.0234944710508
1.7176722682527624e+18,-0.028041164311000004,0.131489900295545,-0.011137983540655
1.7176722684527624e+18,-0.030157236010550002,0.0787635318435,-0.00958672356865
1.7176722686527624e+18,-0.03413788293180501,-0.02857912845205,-0.011632774932864999
1.7176722688527624e+18,-0.021649717840695,-0.05182472241515,-0.0011076167928399997
1.7176722690527624e+18,-0.05378384981050001,0.00846020348821,0.018592014559600002
1.7176722692527624e+18,-0.07666770312599999,-0.04347759663984001,-0.0032901383239500002
1.7176722694527624e+18,-0.09891588166849999,-0.081333656608,-0.0526837590615
1.7176722696527624e+18,-0.0951602017768421,-0.06187090851057894,-0.07456310328947369
1.7176722698527624e+18,-0.056895030197000006,0.0329728232695,0.01058661555865
1.7176722700527624e+18,0.0088898336742,-0.0013382839433000008,-0.011398633917739997
1.7176722702527624e+18,0.028454858438500003,0.028331989055950003,0.025541657697909996
1.7176722704527624e+18,0.035817159991,0.0066935464040949995,0.0018150301879400004
1.7176722706527624e+18,0.07509709894599999,-0.022751713940049996,-0.005104880931249999
1.7176722708527624e+18,0.03788923998404999,0.0020119632390895002,-0.00197187955451
1.7176722710527624e+18,0.0216685362627,0.0008353309884950001,-0.0055957545992
1.7176722712527624e+18,0.026714093272639995,0.0342784640385,0.015756458510750002
1.7176722714527624e+18,-0.026386067108,0.02945362033745,0.022333303978500002
1.7176722716527624e+18,-0.0266746827395,0.0147591976677,-0.003130120435625
1.7176722718527624e+18,-0.047796513233499996,0.01435410017155,0.00642760350605
1.7176722720527624e+18,-0.060796630755500014,-0.00103271447584,-0.0079002747078
1.7176722722527624e+18,-0.037910142308,-0.004265124045055,-0.010763629548787002
1.7176722724527624e+18,0.005252335575900001,-0.006628145173,0.0007318364459200002
1.7176722726527624e+18,0.01014767705324,0.016852719806404997,-0.001033772970805
1.7176722728527624e+18,0.026932401640955006,0.026214695815,-0.00637674590093
1.7176722730527624e+18,0.0467057096765,-0.031935137766849996,-0.01279151635165
1.7176722732527624e+18,0.018545484905440005,0.004019111970421051,0.004383920287921053
1.7176722734527624e+18,0.03949938133651999,0.025150736375099996,0.01707323493981
1.7176722736527624e+18,0.09948199689499998,0.017947717721285,0.03308833837499999
1.7176722738527624e+18,0.067073183508,0.019727291237009996,0.02732961389815001
1.7176722740527624e+18,0.018872653512235,-0.01377982591775,-0.0005141165337
1.7176722742527624e+18,0.00449879910717,0.0012968481930999993,-0.0057571172597795
1.7176722744527624e+18,1.9045369334999997e-05,0.0029774415132499997,-0.0005028562624500002
1.7176722746527624e+18,-0.011948650645449999,0.0032293241413650004,-0.0021866897826949994
1.7176722748527624e+18,-0.025246587209799998,0.011188419838055002,-0.0027435952448799004
1.7176722750527624e+18,-0.0360916733285,0.019450084352974996,-0.001324850809644
1.7176722752527624e+18,-0.0862710321335,-0.0176641282632,-0.0279652534055
1.7176722754527624e+18,-0.033321444224499994,-0.00680129348135,-0.0032675916676499993
1.7176722756527624e+18,0.015376536710599997,0.007182388680731501,0.004266063054010001
1.7176722758527624e+18,0.024005173100849996,-0.0024231384828275002,-0.0033733115414299993
1.7176722760527624e+18,0.020995562848000006,-0.0017520657950750001,-0.00270015550791
1.7176722762527624e+18,0.0189915560645,0.0033325878076364995,-0.0021959970007600004
1.7176722764527624e+18,0.019973454157999997,-0.0018147324561200002,-0.0010516014768500001
1.7176722766527624e+18,0.021043502212650004,0.0003829103370799999,0.0023299789754299997
1.7176722768527624e+18,0.02300009842157895,-0.004354264037126316,0.007089868310547367
1.7176722770527624e+18,0.017105943767305,-0.005781082459374999,-0.00065961088985
1.7176722772527624e+18,-0.0021038981182450005,-0.00013245776494500002,-0.000806717004588
1.7176722774527624e+18,-0.007148091963535,0.0050655270312899995,-0.0011631108468499998
1.7176722776527624e+18,-0.0032054852257049995,0.00325802765592,0.0009513920166
1.7176722778527624e+18,-0.0002727503655699997,-0.0036372681962835002,-0.0005186786177400002
1.7176722780527624e+18,-0.014008408752430002,-0.00197628559551,-0.0008796463487850001
1.7176722782527624e+18,-0.021103866492000002,0.006672591858145,-0.0024332691565425004
1.7176722784527624e+18,-0.014335506118450003,0.0113128355939,0.0013864142936749998
1.7176722786527624e+18,-0.01883156213375,0.0024489199105,0.0020833931399750006
1.7176722788527624e+18,-0.01450783028275,0.001212462499135,-0.0044222078052
1.7176722790527624e+18,-0.00797446554106,0.0029701835330669998,0.0009782558656350002
1.7176722792527624e+18,-0.0044837265364150005,0.001336215935565,-0.00017516178778
1.7176722794527624e+18,-0.0028737974818735,0.002769951913805,-0.0006911930278799998
1.7176722796527624e+18,0.00984257194441,-0.00368263591663,0.00036378963843365
1.7176722798527624e+18,0.01296697938835,-0.008277713309959998,-0.00438325990705
1.7176722800527624e+18,0.015198047273099997,0.006845537444949999,0.0008204021492500005
1.7176722802527624e+18,0.004702349095368421,-0.00020592635583157893,0.0028549020642842106
1.7176722804527624e+18,0.0007345258288399999,-0.0021183184086250003,0.00041461265652999993
1.7176722806527624e+18,0.0018149779296500004,-0.00020536443616000008,0.002480320609428
1.7176722808527624e+18,-0.01701132055615,-0.0015990440818565502,-0.0020620349572999996
1.7176722810527624e+18,-0.01689702475015,0.003320496567035,-0.00379588785575
1.7176722812527624e+18,-0.0043410710988499995,-0.0007742341767644999,-0.001424917008395
1.7176722814527624e+18,-0.0088038545923,-0.004300322779621,-0.006767500785255001
1.7176722816527624e+18,-0.014525714948149998,0.01817949547055,0.0035525914747034995
1.7176722818527624e+18,-0.011771964512099999,0.006817876004559001,0.001266007812265
1.7176722820527624e+18,-0.009485323863145,-0.002834833983795,-0.0030150784877749997
1.7176722822527624e+18,-0.0016110905564999992,0.0043787817267,0.0025401886084200002
1.7176722824527624e+18,0.014879838865899997,-1.098448706449999e-05,-0.0021170142921099998
1.7176722826527624e+18,0.02013339826375,0.008131564929240002,0.00277229042255
1.7176722828527624e+18,0.019881686289,0.0044177261514715006,-0.001531935646199
1.7176722830527624e+18,0.0171088845465,0.009793806845099999,0.0028552251169950004
1.7176722832527624e+18,0.009168406941845002,0.005936991727506001,0.002817136678
1.7176722834527624e+18,-0.011654722434550001,-0.0029416352888899998,-0.0014491517096799997
1.7176722836527624e+18,0.00023369554008200022,0.0017312900557049996,0.008625141437820002
1.7176722838527624e+18,-0.0031151162082315785,-0.020485565409157892,-0.006636141285210527
1.7176722840527624e+18,-0.005926945739390501,0.006446126030395001,0.00391888072489
1.7176722842527624e+18,-0.007757936351140001,-0.0013508871749849998,-0.0035191043515899996
1.7176722844527624e+18,3.75576724900001e-05,-0.00511592610272,-0.0017933224910300007
1.7176722846527624e+18,-0.00495342452483,-0.0005456483850000001,-0.0025313370161849998
1.7176722848527624e+18,-0.015710093266850002,0.0035655305007599994,0.0025462587950849996
1.7176722850527624e+18,-0.007783390835345,-0.0033432586148,-0.00270474472787
1.7176722852527624e+18,-0.005066925363015,-0.0021303423593550005,-0.0005551153094699999
1.7176722854527624e+18,-0.00255299374671,0.01584243455455,0.00250958031918
1.7176722856527624e+18,0.000533367766225,-0.005046263863515,0.00112695330761
1.7176722858527624e+18,0.014958627824550003,-0.00715113925444,-0.0041353202891000005
1.7176722860527624e+18,0.022770891571000002,0.01098699825765,0.004484706325475
1.7176722862527624e+18,0.023795814765,-0.00530803259455,-0.00015244375649449993
1.7176722864527624e+18,0.02042249948535,-0.01163678613925,-0.005689317593495
1.7176722866527624e+18,0.021310144243499998,-0.0022424018366,0.004378953622937
1.7176722868527624e+18,0.007801235207729999,-0.0002505637297600001,-0.0011803298261100002
1.7176722870527624e+18,-0.009754459280900001,-0.00294432047815,-0.0048254628898549996
1.7176722872527624e+18,-0.008078705336355001,0.007794093363600001,0.0025336142629649996
1.7176722874527624e+18,-0.013737869375263159,0.0020905482632384204,-0.003607555819526316
1.7176722876527624e+18,-0.014685165370390002,0.0004916465972750002,-1.0330032230000013e-05
1.7176722878527624e+18,-0.015456489635750002,0.0005276524854199998,-0.000141085241814
1.7176722880527624e+18,-0.022155298293000003,0.0031315727537891995,-0.00013739464335999992
1.7176722882527624e+18,-0.01571006064855,0.0008954796619265,0.0008452220355340001
1.7176722884527624e+18,-0.009118441957549999,-0.00586569806325,-0.00088261044583
1.7176722886527624e+18,-0.0015036990488149998,-0.0017604489243749997,0.003276284830605001
1.7176722888527624e+18,-0.0063794300423000005,-0.0012169019581800002,-0.0015932998036950002
1.7176722890527624e+18,-0.0068239401562199984,1.7829806789999848e-06,-0.0016573186264630003
1.7176722892527624e+18,0.021644773287,0.006577914487600001,0.00195181064765
1.7176722894527624e+18,0.03109747604499999,-0.0031352341058100003,-0.004956193733909999
1.7176722896527624e+18,0.0206443736795,-0.0017036995530250003,0.0010123951599
1.7176722898527624e+18,0.0166822761764,0.003347034318929999,0.002997895109445
1.7176722900527624e+18,0.0033446570339750008,0.0088803207273,0.004308595089635
1.7176722902527624e+18,-0.01602395409988,-0.008647461339999999,0.003118357667977
1.7176722904527624e+18,-0.043020456655999996,-0.008659552230354998,-0.003125931508845
1.7176722906527624e+18,-0.0112654669506275,0.01607756144465,0.00540208290241
1.7176722908527624e+18,0.057214900802800006,0.002324309209165,0.0045980691675
1.7176722910527624e+18,0.08294007378210527,-0.0738358100082105,0.006986434546910526
1.7176722912527624e+18,0.04719169230535001,-0.0798682771635,-0.00045191978580000103
1.7176722914527624e+18,-0.0109003267825,-0.12603575513249998,-0.043780032870499995
1.7176722916527624e+18,-0.0015486728402499999,0.0200359983837,0.08255859792865
1.7176722918527624e+18,0.006914469148440999,-0.0031198729544000014,0.041010494829449996
1.7176722920527624e+18,-0.02552406224634,-0.1027628560615,-0.16081930294359
1.7176722922527624e+18,-0.0263021674125,-0.014541927350319001,-0.02424339102535
1.7176722924527624e+18,-0.02059306793152,0.0639577152205,0.03073031392455
1.7176722926527624e+18,-0.016611413564855,0.0429545224645,-0.0038908087411
1.7176722928527624e+18,-0.016367888736150003,0.01490723503252955,-0.01193498419572
1.7176722930527624e+18,-0.019721452617685004,0.013021128755450001,-0.004277900234614999
1.7176722932527624e+18,-0.010393506986449998,0.03671615267949999,0.010578493424449999
1.7176722934527624e+18,0.005373259703335,0.021222314536005,0.009242151560575
1.7176722936527624e+18,0.01681293760125,-0.015887701558650002,-0.009216333809084999
1.7176722938527624e+18,0.01435112836695,-0.007606735499555,0.0075237013630000005
1.7176722940527624e+18,0.028955066716500007,-0.05995899389974999,-0.030349935661250004
1.7176722942527624e+18,-0.005571440621685001,0.009033895491855,0.020971204410704998
1.7176722944527624e+18,-0.02458549411935,0.047993463350099984,0.0235574080613
1.7176722946527624e+18,0.008203048063789475,0.018645430832220523,-0.008130196653757896
1.7176722948527624e+18,-0.016272870033050002,-0.0046046891603,0.00808987752442
1.7176722950527624e+18,0.04993080908895,0.015142724849049998,-0.0370983136812
1.7176722952527624e+18,0.28498709127,-0.034412153582945006,-0.028667394025050003
1.7176722954527624e+18,0.595554685595,-0.0490689316625,-0.0161063699289
1.7176722956527624e+18,0.368002322315,-0.024473690164135004,-0.0395702482332
1.7176722958527624e+18,0.40863623245499997,-0.16944605293444998,-0.10722011996899998
1.7176722960527624e+18,-0.10090533644600001,0.5710507191349998,0.23819000198749998
1.7176722962527624e+18,-0.44368320069600004,-0.44409979133500005,-0.2747163723004
1.7176722964527624e+18,-0.681976055001,0.3194482760415,0.3426828864555
1.7176722966527624e+18,-0.5696734562650001,-0.022713543468000003,-0.028211418350000007
1.7176722968527624e+18,-0.1776322070495,0.04666296779390001,0.014105966824500002
1.7176722970527624e+18,-0.0662078027595,-0.08320705988249999,-0.10515494244099999
1.7176722972527624e+18,0.14591273512050001,0.054875303411,0.04988870085093
1.7176722974527624e+18,0.599130411445,0.025340025507455,-0.017273307585500004
1.7176722976527624e+18,0.5027017071800001,0.12364271236299999,0.2851987136551
1.7176722978527624e+18,-0.043192970200750004,-0.11226429110400002,-0.15682188730744948
1.7176722980527624e+18,-0.6517553721578947,-0.16024421389736843,-0.09709387611452631
1.7176722982527624e+18,-0.28871793151,-0.08747822324080001,-0.006094060953900001
1.7176722984527624e+18,-0.08042314173750002,0.056367388893175,0.000111891072599999
1.7176722986527624e+18,0.14194842577000003,0.11711013415305002,0.046210954520249994
1.7176722988527624e+18,0.6217703700149999,-0.037481963962,-0.08799854130585
1.7176722990527624e+18,0.44095797241,0.455886682865,0.277257441735
1.7176722992527624e+18,0.006799114116499999,-0.11523840557055001,-0.14765557254095002
1.7176722994527624e+18,-0.656231161965,-0.24776988924000004,-0.11680152751250002
1.7176722996527624e+18,-0.39227082952500003,-0.04563880883450002,0.01870888368600001
1.7176722998527624e+18,-0.04504048815100001,-0.002454602295000001,0.01831900309815
1.7176723000527624e+18,0.0671992722955,-0.0894473007535,0.022422803448249994
1.7176723002527624e+18,0.49645750076000006,-0.22318203001800002,-0.025056357055020007
1.7176723004527624e+18,0.47243608535500003,-0.1790040262975,-0.07817701217388
1.7176723006527624e+18,0.28361026272,0.04972706085733501,0.046460969371000006
1.7176723008527624e+18,-0.014620430860500003,0.01371400966354,-0.09363597053099999
1.7176723010527624e+18,-0.76838868558,0.20742241683700002,0.035453752918649994
1.7176723012527624e+18,-0.49381369799999997,-0.019994462918249998,0.070652727499
1.7176723014527624e+18,-0.17279409133505003,0.064672842156,0.018818353023515
1.7176723016527624e+18,-0.012592803497368417,0.11321224789484212,0.05670153652894736
1.7176723018527624e+18,0.437813578545,-0.002218584576249999,0.013976997255165
1.7176723020527624e+18,0.53102460503,-0.13311218041700001,-0.0610821850797
1.7176723022527624e+18,0.23011400402000004,-0.1606481095684,0.0137237732295
1.7176723024527624e+18,0.1887359310512,-0.010118333294450003,-0.0416097339216
1.7176723026527624e+18,-0.319082952759715,0.14874538071649998,-0.0141780165067
1.7176723028527624e+18,-0.581625741715,0.0063697820927000005,-0.0671205345535
1.7176723030527624e+18,-0.35263905451500005,-0.0069450984244,0.0812281228858
1.7176723032527624e+18,-0.193406071327,0.056151047436195,0.02287740865644
1.7176723034527624e+18,-0.006651220844649998,0.14888050295199998,0.02793104052175
1.7176723036527624e+18,0.44963403866,-0.0023802336285,0.034352036493999996
1.7176723038527624e+18,0.59669121354,0.0492173307046,0.0394649837166
1.7176723040527624e+18,0.369571530815,0.11305314396449999,0.0989299693955
1.7176723042527624e+18,0.2669311609100001,0.0957658609208,0.0307181362065
1.7176723044527624e+18,0.11822257034200001,-0.10333868191055,-0.06187266429030001
1.7176723046527624e+18,0.47239587306999997,0.002768760803999998,-0.08757617291684999
1.7176723048527624e+18,-0.407790186916,0.31969434363039995,0.1360025358475
1.7176723050527624e+18,-0.40922315717700003,0.6512154460049999,-0.0761153789265
1.7176723052527624e+18,1.0392415626307894,-0.5198880393073685,-0.7003638289315789
1.7176723054527624e+18,0.033077263556499995,0.05447148801284999,0.27471814631600006
1.7176723056527624e+18,0.013977439215549997,-0.163122071734,-0.24660169137850002
1.7176723058527624e+18,0.00467556521815,0.026383619849650004,-0.062919560658867
1.7176723060527624e+18,-0.021246035487695,0.028909025564675,0.014804906421199998
1.7176723062527624e+18,-0.06496219495850002,-0.028700604251715,-0.06283340668235
1.7176723064527624e+18,-0.10370232202600001,-0.047674711839,-0.0363881019415
1.7176723066527624e+18,0.0012257626068499998,-0.22667886093399997,0.1409280015477
1.7176723068527624e+18,0.23771440349550002,-0.28410327137,0.1789025818475
1.7176723070527624e+18,0.610358434915,0.33687841184100004,0.549585016065
1.7176723072527624e+18,0.07313330274025001,0.14846806991049996,0.452957883485
1.7176723074527624e+18,-0.319484369087,-0.4317444093545001,0.09681487352155
1.7176723076527624e+18,0.135399929004055,0.041726209130000004,0.24873392767050007
1.7176723078527624e+18,0.012673682158649996,0.007975898369599999,0.14164916151079998
1.7176723080527624e+18,0.2603452834978,-0.064901054300115,0.03683285547895
1.7176723082527624e+18,0.31551221458999995,-0.14273927285,-0.104453121122
1.7176723084527624e+18,0.186299387367,-0.025618988259144992,0.0075262292743
1.7176723086527624e+18,0.027537246489149996,0.0300905631154,0.0382536521645
1.7176723088527624e+18,0.10148187349178946,-0.011215465275347369,0.0467106840388421
1.7176723090527624e+18,0.43122100087500004,0.00616875359725,0.05002860625260001
1.7176723092527624e+18,1.2591348766750001,0.29497722499510004,-0.9319588370925003
1.7176723094527624e+18,3.4665348946,2.8272518575000007,0.403882771736
1.7176723096527624e+18,1.8665859554089999,4.28674625155,-1.8909439981499996
1.7176723098527624e+18,2.271693099245,6.1363566160000005,-0.6480199351524499
1.7176723100527624e+18,0.03692336272049997,5.52306356425,-1.54087521138
1.7176723102527624e+18,-1.456135633645,4.436249363499999,1.4814748979000003
1.7176723104527624e+18,-0.39443785789849994,2.0741324126,1.1332632258500002
1.7176723106527624e+18,0.144134096805,0.7108142368550001,0.936314845025
1.7176723108527624e+18,0.5718465503649999,-0.17338791676999998,0.951009088665
1.7176723110527624e+18,0.20180279053700004,0.6629312912409999,0.23657755721249996
1.7176723112527624e+18,0.1482562757276,0.410136549927,0.0976680924874
1.7176723114527624e+18,0.0320190387322,0.3409436123455,0.09169595111300001
1.7176723116527624e+18,0.05042156571294117,0.21083801238588235,0.05902403705511765
1.7176723118527624e+18,,,
